"Time (s)","Linear Acceleration x (m/s^2)","Linear Acceleration y (m/s^2)","Linear Acceleration z (m/s^2)","Absolute acceleration (m/s^2)"
5.005683900E-2,0.000000000E0,0.000000000E0,0.000000000E0,0.000000000E0
5.478673400E-2,2.423614264E-3,2.371691167E-3,8.378028870E-3,9.038262711E-3
5.951663000E-2,-9.517535567E-3,1.569859684E-3,2.391815186E-3,9.938245448E-3
6.424647400E-2,-3.546237946E-3,1.207247376E-3,-8.979797363E-3,9.729851514E-3
6.897637000E-2,6.763696671E-3,-6.685249507E-3,-1.292991638E-2,1.605063523E-2
7.370621400E-2,-6.308764219E-3,4.414856434E-3,-8.781433105E-3,1.167925643E-2
7.843610900E-2,-3.305107355E-3,-3.590509295E-4,-1.573657990E-2,1.608392362E-2
8.316600500E-2,1.348823309E-3,-1.077865064E-2,-7.486343384E-3,1.319257258E-2
8.789584900E-2,1.301854849E-3,-5.365982652E-3,1.675033569E-2,1.763695954E-2
9.262574500E-2,-9.563267231E-4,1.618847251E-3,-2.162933350E-3,2.865921823E-3
9.735558900E-2,1.256108284E-3,2.544950694E-2,8.917808533E-3,2.699597230E-2
1.020854840E-1,-1.204121113E-2,7.977426052E-3,-2.797126770E-3,1.471237608E-2
1.068153800E-1,-6.377696991E-5,2.902545035E-3,-9.212493896E-3,9.659134484E-3
1.115452240E-1,6.611317396E-3,-4.016347229E-3,-1.077938080E-2,1.326784132E-2
1.162751200E-1,1.737129688E-2,1.634680480E-2,-1.676464081E-2,2.915532822E-2
1.210049640E-1,-1.064644754E-2,1.082108170E-2,-5.722045898E-6,1.518033883E-2
1.257348590E-1,1.696687937E-2,-1.042261720E-3,6.755828857E-3,1.829214390E-2
1.304647550E-1,9.242892265E-3,1.708986610E-2,-4.924774170E-3,2.004365190E-2
1.351945990E-1,-2.582758665E-3,7.102049887E-3,2.139091492E-3,7.854009634E-3
1.399244950E-1,6.508946419E-3,6.758190691E-3,-9.337425232E-3,1.323733489E-2
1.446543910E-1,1.977184415E-2,1.915469766E-3,-2.049446106E-3,1.996985415E-2
1.493842340E-1,2.822726965E-3,1.839682460E-3,-6.524085999E-3,7.342745889E-3
1.541141300E-1,-6.458163261E-3,1.772440970E-3,1.207923889E-2,1.381149637E-2
1.588439740E-1,-3.865629435E-3,4.004992545E-3,1.845741272E-2,1.927846313E-2
1.635738700E-1,7.809787989E-3,1.302266866E-2,-9.861946106E-3,1.810637094E-2
1.683037660E-1,6.325244904E-4,9.410381317E-4,8.932113647E-3,9.003793323E-3
1.730336090E-1,-1.667112112E-3,1.925122738E-2,2.012538910E-2,2.790018467E-2
1.777635050E-1,9.909301996E-3,1.623954624E-2,1.248168945E-2,2.275323493E-2
1.824933490E-1,9.569227695E-3,-9.762972593E-3,2.129650116E-2,2.530665356E-2
1.872232450E-1,-3.331899643E-5,-1.408244669E-2,1.133060455E-2,1.807481714E-2
1.919531410E-1,1.384246349E-2,2.289339900E-4,4.014968872E-3,1.441479037E-2
1.966829840E-1,1.343926787E-2,9.455494583E-3,3.888130188E-3,1.688602544E-2
2.014128800E-1,-3.217756748E-3,-1.403582096E-2,1.449584961E-3,1.447271658E-2
2.061427760E-1,1.073673368E-2,-6.640478969E-3,8.379936218E-3,1.515245003E-2
2.108726200E-1,8.133143187E-3,-1.872248948E-3,-1.046657562E-2,1.338665528E-2
2.156025160E-1,-3.757327795E-3,-6.491839886E-3,-1.483058929E-2,1.661950288E-2
2.203323590E-1,-1.297175884E-3,-2.263856679E-2,-1.210212708E-2,2.570309031E-2
2.250622550E-1,-1.058581471E-2,-5.740836263E-3,2.203941345E-3,1.224230500E-2
2.297921510E-1,3.627568483E-3,-1.494020224E-2,1.147842407E-2,1.918653474E-2
2.345219950E-1,1.987734437E-2,-5.219668150E-3,-5.148887634E-3,2.118642959E-2
2.392518910E-1,1.469442248E-2,-1.439567655E-2,-1.903629303E-2,2.802752233E-2
2.439817340E-1,-2.013832331E-3,9.329572320E-3,-6.897926331E-3,1.177615506E-2
2.487116300E-1,-1.994013786E-3,9.123399854E-3,-2.076721191E-2,2.277036685E-2
2.534415260E-1,7.355004549E-3,-3.313145787E-2,7.782936096E-3,3.481901329E-2
2.581713700E-1,-9.334236383E-3,5.125313997E-3,9.955406189E-3,1.457761725E-2
2.629012660E-1,-1.389889419E-2,3.117844462E-4,2.715110779E-3,1.416503780E-2
2.676311090E-1,-1.363022625E-2,5.002282560E-3,3.156661987E-4,1.452258736E-2
2.723610050E-1,-8.628696203E-3,-1.152875274E-2,-3.485584259E-2,3.771334380E-2
2.770909010E-1,5.564242601E-3,-4.189230502E-3,-4.117774963E-2,4.176263297E-2
2.818207450E-1,-2.038222551E-2,-1.719549298E-3,-3.800678253E-2,4.316141199E-2
2.865506410E-1,-1.998126507E-2,1.707486063E-2,-1.144313812E-2,2.866613384E-2
2.912805370E-1,-2.197156847E-2,2.670466900E-3,1.695346832E-2,2.788012379E-2
2.960103800E-1,-4.431903362E-4,9.679198265E-3,2.838039398E-2,2.998883224E-2
3.007402760E-1,-1.215369999E-2,7.191427052E-3,3.255462646E-2,3.548566965E-2
3.054701200E-1,-2.130518854E-2,1.180231571E-2,2.961158752E-2,3.834125494E-2
3.102000160E-1,-4.407614470E-3,4.520937800E-3,-8.540153503E-3,1.062074224E-2
3.149299120E-1,-8.976459503E-3,4.425793886E-3,2.218437195E-2,2.433743691E-2
3.196597550E-1,-1.349751651E-2,-4.001930356E-4,-4.079818726E-3,1.410631161E-2
3.243896510E-1,8.533895016E-4,9.031556547E-3,2.658557892E-2,2.809075104E-2
3.291195470E-1,-1.541912556E-3,4.184260964E-3,9.663581848E-3,1.064285433E-2
3.338493910E-1,1.258581877E-2,1.590228826E-2,3.069972992E-2,3.679346441E-2
3.385792870E-1,9.972214699E-3,-5.541913211E-3,1.136207581E-2,1.610138611E-2
3.433091300E-1,3.908574581E-4,-7.301270962E-4,1.118183136E-2,1.121245770E-2
3.480390260E-1,1.452648640E-2,8.720427752E-3,1.581192017E-3,1.701660470E-2
3.527689220E-1,1.654863358E-2,1.808347553E-2,-7.963180542E-4,2.452556794E-2
3.574987660E-1,1.388454437E-2,-1.042217016E-3,2.986907959E-2,3.295494962E-2
3.622286620E-1,2.541396022E-2,-9.302124381E-4,4.121685028E-2,4.843101709E-2
3.669585050E-1,1.088789105E-2,8.529923856E-3,5.476474762E-2,5.648436380E-2
3.716884010E-1,3.652900457E-3,1.310772449E-2,4.453372955E-2,4.656618076E-2
3.764182970E-1,1.242160797E-3,-3.558866680E-3,1.321792603E-2,1.374489228E-2
3.811481410E-1,2.010932565E-2,-1.057748497E-2,5.950927734E-3,2.348790555E-2
3.858780370E-1,5.609959364E-3,3.775209188E-3,1.767349243E-2,1.892290103E-2
3.906079320E-1,7.835328579E-4,-9.874552488E-4,2.923965454E-2,2.926681379E-2
3.953377760E-1,5.525767803E-3,6.150357425E-3,3.829097748E-2,3.917345992E-2
4.000676720E-1,3.119826317E-3,-3.339625895E-3,1.888370514E-2,1.942886351E-2
4.047975160E-1,5.471646786E-3,2.506864816E-2,1.627063751E-2,3.038272016E-2
4.095274120E-1,-2.520382404E-2,1.997206360E-2,1.133060455E-2,3.409543474E-2
4.142572550E-1,-5.887389183E-3,-1.657083631E-3,-1.245212555E-2,1.387309296E-2
4.189871510E-1,1.336842775E-3,2.990514040E-3,-2.175235748E-2,2.199762212E-2
4.237170470E-1,-1.047134399E-2,-1.820981503E-3,-1.911735535E-2,2.187323237E-2
4.284468910E-1,1.481950283E-3,2.970613539E-3,-7.058143616E-3,7.799879021E-3
4.331767870E-1,-8.997023106E-4,6.095170975E-4,-1.879692078E-2,1.882830863E-2
4.379066820E-1,1.091036201E-2,-8.875519037E-3,1.217842102E-2,1.860442893E-2
4.426365260E-1,-1.050826907E-2,-1.689009368E-3,4.937171936E-3,1.173252480E-2
4.473664220E-1,1.531451941E-3,-1.351548731E-2,-4.587173462E-3,1.435464743E-2
4.520963180E-1,2.047312260E-2,-2.050291747E-2,-2.346611023E-2,3.728507346E-2
4.568261620E-1,-1.031458378E-3,-1.315508038E-2,-2.556324005E-2,2.876802545E-2
4.615560570E-1,-8.147478104E-3,-5.893215537E-3,-2.290534973E-2,2.501532401E-2
4.662859010E-1,-3.405600786E-3,-1.291766018E-2,-3.707885742E-3,1.386407147E-2
4.710157970E-1,-1.517526805E-2,-1.749669760E-2,-1.550579071E-2,2.787207802E-2
4.757456410E-1,-1.027157903E-2,1.592814922E-3,-8.233070374E-3,1.325993374E-2
4.804755370E-1,1.625001431E-3,-1.028157026E-2,-1.998233795E-2,2.253098193E-2
4.852054320E-1,-5.581378937E-3,2.060091496E-2,-1.976585388E-2,2.909017820E-2
4.899352760E-1,-8.121132851E-4,-1.037108898E-2,-2.429199219E-2,2.642574311E-2
4.946651720E-1,-7.852137089E-3,-8.314326406E-4,-2.166938782E-2,2.306316772E-2
4.993950680E-1,-6.041228771E-4,1.574613899E-2,-2.144527435E-2,2.661213350E-2
5.041249120E-1,-5.306690931E-3,8.459597826E-3,-2.359390259E-2,2.562026548E-2
5.088548070E-1,-5.399882793E-4,8.385717869E-3,1.219177246E-2,1.480713231E-2
5.135846510E-1,1.837342978E-3,-1.301503181E-2,1.206874847E-2,1.784437088E-2
5.183145470E-1,-7.660657167E-3,1.318596303E-3,7.208824158E-3,1.060148623E-2
5.230444430E-1,-7.555663586E-3,8.398517966E-3,4.766464233E-3,1.226141662E-2
5.277742870E-1,1.865348220E-2,3.529787064E-3,-4.765510559E-3,1.957349958E-2
5.325041820E-1,-4.931390285E-4,-3.605343401E-3,7.135391235E-3,8.009712556E-3
5.372340260E-1,1.133930683E-2,8.294917643E-3,-9.530067444E-3,1.697668176E-2
5.419639220E-1,8.832603693E-3,3.512702882E-3,4.790306091E-3,1.064429434E-2
5.466938180E-1,-1.027861238E-2,3.429175168E-2,-2.608394623E-2,4.429386365E-2
5.514236620E-1,1.110771298E-2,-1.592136919E-3,-3.058242798E-2,3.257608154E-2
5.561535570E-1,6.205469370E-3,-8.709914982E-3,-8.950233459E-3,1.394550638E-2
5.608834010E-1,1.560997963E-2,-3.874033689E-3,-4.122734070E-3,1.660350979E-2
5.656132970E-1,-3.537416458E-3,1.752464473E-2,2.912902832E-2,3.417786973E-2
5.703431930E-1,2.496641874E-2,1.500668377E-2,1.700305939E-2,3.372872146E-2
5.750730370E-1,1.997125149E-2,1.720099896E-2,1.447868347E-2,3.007253774E-2
5.798029320E-1,2.454227209E-2,-4.294216633E-3,1.435089111E-2,2.875259104E-2
5.845328280E-1,3.027617931E-3,-3.034816682E-2,-1.525878906E-5,3.049881855E-2
5.892626720E-1,1.006555557E-2,-6.368197501E-3,9.478569031E-3,1.522210955E-2
5.939925680E-1,-1.887470484E-3,8.180215955E-4,2.126502991E-2,2.136429735E-2
5.987224120E-1,-8.962750435E-3,2.698890865E-2,2.108287811E-2,3.540084512E-2
6.034523070E-1,-1.707404852E-3,-8.807539940E-3,-2.835273743E-3,9.408866474E-3
6.081822030E-1,3.084987402E-3,1.264476776E-2,1.142978668E-2,1.732187411E-2
6.129120470E-1,-4.090279341E-3,-8.816227317E-3,1.839637756E-3,9.891436512E-3
6.176419430E-1,5.795955658E-4,-2.535009384E-2,-7.669448853E-3,2.649119919E-2
6.223717870E-1,5.188882351E-4,-1.091144979E-2,-4.816055298E-4,1.093439186E-2
6.271016820E-1,-1.132607460E-2,-1.080805063E-2,3.038501740E-2,3.418103577E-2
6.318315780E-1,-8.856236935E-3,5.912773311E-3,2.300930023E-2,2.535392905E-2
6.365614220E-1,1.498857141E-2,-1.077304035E-2,1.806735992E-2,2.582915341E-2
6.412913180E-1,7.714062929E-3,-5.951710045E-3,6.048202515E-3,1.146779722E-2
6.460211620E-1,-1.902699471E-3,-1.069638133E-2,-1.536941528E-2,1.882157711E-2
6.507510570E-1,-1.610194147E-2,-8.249841630E-3,-9.965896606E-4,1.811975709E-2
6.554809530E-1,1.970270276E-2,-2.247118950E-2,-8.113861084E-3,3.096749256E-2
6.602107970E-1,-1.129591465E-2,-5.084813386E-2,1.448631287E-3,5.210785869E-2
6.649406930E-1,-8.911997080E-3,4.248887300E-3,2.992916107E-2,3.151557421E-2
6.696705890E-1,1.244553924E-2,-2.868779004E-3,1.068878174E-2,1.665447072E-2
6.744004320E-1,1.466041803E-2,-1.942372322E-2,1.060199738E-2,2.654451410E-2
6.791303280E-1,-1.638127863E-2,-4.976794124E-3,1.019477844E-3,1.715092139E-2
6.838601720E-1,-6.775021553E-3,-1.676514000E-2,3.386497498E-3,1.839671714E-2
6.885900680E-1,7.527351379E-3,-2.851366997E-2,-1.390457153E-3,2.952327497E-2
6.933199640E-1,2.408441901E-2,-9.272664785E-3,-3.752708435E-3,2.607919424E-2
6.980498070E-1,-2.202421427E-3,-6.867207587E-3,-1.559448242E-2,1.718130036E-2
7.027797030E-1,-4.556864500E-3,-2.106897533E-3,1.539802551E-2,1.619577787E-2
7.075095470E-1,2.304315567E-4,-2.106845379E-3,1.764392853E-2,1.777076560E-2
7.122394430E-1,-4.546910524E-3,3.250315785E-4,3.253936768E-3,5.600727214E-3
7.169693390E-1,1.205408573E-2,2.413169295E-2,-1.520156860E-3,2.701759545E-2
7.216991820E-1,4.831969738E-3,1.204160601E-2,-1.575279236E-2,2.040829914E-2
7.264290780E-1,-9.395241737E-3,1.426944882E-2,-1.087474823E-2,2.025210818E-2
7.311589740E-1,7.332175970E-3,-1.103579998E-4,1.085281372E-3,7.412881963E-3
7.358888180E-1,9.646862745E-3,2.124190331E-2,-1.079463959E-2,2.570612107E-2
7.406187140E-1,-4.648596048E-3,6.774790585E-3,1.165390015E-3,8.298515926E-3
7.453485570E-1,-1.175943017E-2,1.625509560E-2,-1.071453094E-2,2.274452691E-2
7.500784530E-1,2.584755421E-3,4.260621965E-3,-1.062488556E-2,1.173550396E-2
7.548083490E-1,-4.586338997E-3,4.179909825E-3,-1.765823364E-2,1.871682043E-2
7.595381930E-1,-6.864309311E-3,1.122155786E-2,-1.039028168E-2,1.676305630E-2
7.642680890E-1,-6.805479527E-3,3.989599645E-3,1.566886902E-3,8.042797491E-3
7.689979320E-1,4.325509071E-4,1.109202951E-2,2.529335022E-2,2.762198009E-2
7.737278280E-1,-4.289537668E-3,1.813375205E-2,4.882335663E-2,5.225852322E-2
7.784577240E-1,5.300760269E-3,8.497007191E-3,3.416919708E-2,3.560661764E-2
7.831875680E-1,-9.015440941E-3,3.689624369E-3,-1.726150513E-3,9.892982307E-3
7.879174640E-1,-8.910238743E-3,-5.853705108E-3,-1.358318329E-2,1.726734161E-2
7.926473070E-1,-1.711905003E-3,-3.475241363E-3,-2.059364319E-2,2.095485770E-2
7.973772030E-1,1.011812687E-2,-1.055550575E-2,-1.567268372E-2,2.143427647E-2
8.021070990E-1,-8.958041668E-3,1.803395152E-2,1.532173157E-2,2.530267528E-2
8.068369430E-1,1.008266211E-2,1.247882843E-3,4.843330383E-2,4.948739442E-2
8.115668390E-1,5.194455385E-3,-3.499843180E-3,1.241970062E-2,1.390971720E-2
8.162966820E-1,-1.632870734E-2,-3.373563290E-3,5.197525024E-3,1.746487558E-2
8.210265780E-1,-4.320263863E-3,-3.422538191E-2,-1.621341705E-2,3.811713971E-2
8.257564740E-1,-1.143413782E-2,1.626081765E-3,-1.370334625E-2,1.792108669E-2
8.304863180E-1,-1.376892626E-2,-7.873088121E-3,-1.716613770E-3,1.595354537E-2
8.352162140E-1,1.246276498E-2,-1.016991585E-2,1.491641998E-2,2.193734908E-2
8.399461090E-1,2.660483122E-2,4.142217338E-3,3.141117096E-2,4.137193094E-2
8.446759530E-1,-9.142339230E-3,-3.059960902E-3,2.402400970E-2,2.588626604E-2
8.494058490E-1,-1.138201356E-2,-7.799506187E-3,-4.667282104E-3,1.456592090E-2
8.541356930E-1,-4.134297371E-3,-5.347132683E-3,-9.378433228E-3,1.156024448E-2
8.588655890E-1,-6.529301405E-3,1.832328737E-3,-1.167201996E-2,1.349908350E-2
8.635954840E-1,-1.782476902E-3,4.173710942E-3,2.671241760E-3,5.266176932E-3
8.683253280E-1,-6.572097540E-3,-1.967773587E-2,2.639102936E-2,3.356921485E-2
8.730552240E-1,5.326271057E-3,-7.659770548E-3,4.041576385E-2,4.147861155E-2
8.777851200E-1,-6.644427776E-3,6.632201374E-3,4.468917847E-3,1.039739113E-2
8.825149640E-1,-1.839429140E-3,-5.310550332E-3,-9.814262390E-3,1.130951770E-2
8.872448590E-1,-1.134750247E-2,-1.952718198E-2,-3.347301483E-2,4.037969007E-2
8.919747030E-1,1.955538988E-2,1.957647502E-3,-2.369594574E-2,3.078544302E-2
8.967045990E-1,2.689331770E-3,-1.704013348E-2,-6.876945496E-3,1.857124211E-2
9.014344950E-1,5.042403936E-3,-2.669990063E-3,3.116607666E-2,3.168404991E-2
9.061643390E-1,1.209595799E-2,-1.453448087E-2,2.853393555E-2,3.423081670E-2
9.108942340E-1,9.593904018E-3,-2.152407914E-2,-1.926422119E-4,2.356620649E-2
9.156240780E-1,9.515583515E-3,-7.115818560E-3,-9.688377380E-3,1.533120542E-2
9.203539740E-1,4.689961672E-3,-4.697613418E-3,-1.673030853E-2,1.799907042E-2
9.250838700E-1,2.307116985E-3,1.434794068E-2,-2.846145630E-2,3.195685662E-2
9.298137140E-1,1.175764203E-2,-2.849382162E-2,-6.856918335E-3,3.157779830E-2
9.345436090E-1,2.192884684E-3,-2.352483571E-2,5.069732666E-3,2.416461933E-2
9.392734530E-1,-4.974931479E-3,1.701497287E-2,-9.217262268E-3,1.998041963E-2
9.440033490E-1,2.189964056E-3,-4.511639476E-3,-2.101039886E-2,2.160064105E-2
9.487332450E-1,-1.679225266E-2,-1.401737332E-2,-2.795886993E-2,3.549880156E-2
9.534630890E-1,-7.097452879E-3,-4.420712590E-3,-3.247737885E-2,3.353649764E-2
9.581929840E-1,-2.260833979E-3,1.218844205E-2,-2.271080017E-2,2.587373058E-2
9.629228280E-1,9.658247232E-3,-1.167210937E-2,-3.201961517E-2,3.542281232E-2
9.676527240E-1,-4.666060209E-3,9.746521711E-3,-1.276016235E-2,1.672090149E-2
9.723826200E-1,4.841983318E-3,7.302120328E-3,-1.502799988E-2,1.739558979E-2
9.771124640E-1,-9.441643953E-3,7.282204926E-3,1.716613770E-3,1.204665563E-2
9.818423590E-1,9.602785110E-3,-4.638254642E-3,4.077911377E-3,1.141736612E-2
9.865722550E-1,-2.404481173E-3,-1.651782542E-2,-1.732254028E-2,2.405598654E-2
9.913020990E-1,-9.238719940E-6,4.998117685E-3,-2.667427063E-2,2.713849626E-2
9.960319950E-1,-1.891592145E-2,4.910506308E-3,-2.170753479E-2,2.920859845E-2
1.000761839E0,-2.137631178E-3,1.909847558E-2,-4.907608032E-3,1.983446125E-2
1.005491734E0,-6.866484880E-3,-7.192298770E-3,-4.866600037E-3,1.107075301E-2
1.010221630E0,-4.405319691E-3,-9.523265064E-3,7.043838501E-3,1.263784317E-2
1.014951474E0,-6.684213877E-3,1.659880579E-2,-4.887580872E-3,1.854959610E-2
1.019681370E0,-2.087208629E-2,3.071708232E-2,-9.822845459E-5,3.713748485E-2
1.024411266E0,-2.547356486E-2,-2.736777067E-3,-9.593009949E-3,2.735723479E-2
1.029141109E0,-6.295531988E-3,1.866432279E-2,-1.188564301E-2,2.300563361E-2
1.033871005E0,-1.464694738E-3,1.845292747E-3,9.579658508E-3,9.865104821E-3
1.038600849E0,8.073866367E-3,1.784704626E-3,9.498596191E-3,1.259348317E-2
1.043330745E0,1.507347822E-2,8.932456374E-3,3.553676605E-2,3.962146216E-2
1.048060589E0,1.263192296E-2,4.036054015E-3,2.574253082E-2,2.895743605E-2
1.052790484E0,3.116488457E-3,1.582302153E-3,3.264713287E-2,3.283369405E-2
1.057520380E0,-4.001826048E-3,-3.223627806E-3,2.050399780E-2,2.113812465E-2
1.062250224E0,-1.593023539E-3,1.812535524E-2,1.320934296E-2,2.248450507E-2
1.066980120E0,3.400507569E-2,1.563958824E-2,-1.301479340E-2,3.962734839E-2
1.071710016E0,-2.085363865E-2,3.650993109E-3,4.407310486E-2,4.889419769E-2
1.076439859E0,-6.462097168E-3,8.409045637E-3,1.521587372E-2,1.854706342E-2
1.081169755E0,1.727733016E-2,-5.894944072E-3,5.307769775E-2,5.612930163E-2
1.085899599E0,2.188298106E-2,1.315908134E-2,4.076385498E-2,4.810112426E-2
1.090629495E0,1.217687130E-2,8.284367621E-3,-2.308845520E-3,1.490763929E-2
1.095359391E0,-2.167850733E-3,-8.391231298E-3,-7.038116455E-3,1.116456102E-2
1.100089234E0,2.156427503E-2,-1.216366887E-3,2.518653870E-3,2.174491028E-2
1.104819130E0,1.426318288E-2,-8.346177638E-3,7.245063782E-3,1.804405764E-2
1.109549026E0,9.396433830E-3,-3.518879414E-3,2.437591553E-3,1.032556699E-2
1.114278870E0,-2.058744431E-4,-8.255355060E-3,7.165908813E-3,1.093359596E-2
1.119008766E0,-4.979580641E-3,8.415721357E-3,1.185607910E-2,1.536838316E-2
1.123738609E0,9.307801723E-3,8.299618959E-3,4.633903503E-3,1.330383063E-2
1.128468505E0,-2.400650084E-2,1.058785617E-2,-3.339195251E-2,4.246689621E-2
1.133198401E0,1.180648804E-2,9.847655892E-4,-2.836418152E-2,3.073905848E-2
1.137928245E0,6.961435080E-3,-1.091017574E-2,-2.575397491E-2,2.882292034E-2
1.142658141E0,-4.993796349E-3,-8.431881666E-3,-1.796722412E-3,9.963073915E-3
1.147388037E0,2.143740654E-3,1.776723564E-2,-4.154205322E-3,1.837192717E-2
1.152117880E0,-9.828627110E-3,-2.029778808E-2,1.012706757E-2,2.472164253E-2
1.156847776E0,-1.686753333E-2,-8.273899555E-3,-6.575584412E-3,1.990500954E-2
1.161577620E0,-2.509206533E-3,6.023190916E-3,-3.263568878E-2,3.328157341E-2
1.166307516E0,-2.388276160E-2,5.984716117E-3,-4.898071289E-2,5.482073845E-2
1.171037359E0,-4.689216614E-3,1.169793308E-3,1.284599304E-3,5.000736366E-3
1.175767255E0,-7.022678852E-3,-1.784913242E-2,-1.297092438E-2,2.315500865E-2
1.180497151E0,1.197341084E-2,-1.056622714E-2,-1.760959625E-2,2.377194993E-2
1.185226995E0,1.424884796E-2,-2.708625048E-2,3.905296326E-3,3.085362171E-2
1.189956891E0,-9.638816118E-3,-1.738144457E-2,-1.512050629E-2,2.497300747E-2
1.194686787E0,-2.548545599E-3,-5.411058664E-3,-3.635883331E-2,3.684751553E-2
1.199416630E0,-7.359653711E-3,-3.037035465E-3,-3.842830658E-2,3.924439876E-2
1.204146526E0,-2.577155828E-3,8.870720863E-3,-4.997730255E-2,5.082383487E-2
1.208876370E0,4.510879517E-3,1.656845212E-3,-1.632213593E-2,1.701485502E-2
1.213606266E0,-1.448981464E-2,-3.398518264E-2,1.230239868E-2,3.893965050E-2
1.218336162E0,-9.619444609E-3,-7.631540298E-3,9.824752808E-3,1.572577151E-2
1.223066005E0,-2.415508032E-3,-5.182079971E-3,1.211643219E-2,1.339763266E-2
1.227795901E0,-9.544968605E-3,-3.788992763E-4,-9.350776672E-3,1.336738623E-2
1.232525745E0,-7.147163153E-3,-1.460967213E-2,-4.488372803E-2,4.773964288E-2
1.237255641E0,-1.901423931E-2,6.833456457E-3,-2.076721191E-2,2.897437686E-2
1.241985537E0,-1.896888018E-2,-1.214955002E-2,-1.109313965E-2,2.510951469E-2
1.246715380E0,-4.706561565E-3,1.176255941E-2,-2.286720276E-2,2.614227396E-2
1.251445276E0,-5.466510355E-2,-2.390676737E-2,-4.404067993E-2,7.415786244E-2
1.256175172E0,-3.284090757E-2,-1.657338440E-2,1.201429367E-1,1.256484282E-1
1.260905016E0,3.017842770E-3,4.943773150E-3,-2.805423737E-2,2.864591598E-2
1.265634912E0,7.714152336E-3,1.678577811E-2,-6.105899811E-2,6.379241133E-2
1.270364755E0,1.237103343E-2,7.161021233E-3,-2.018833160E-2,2.473643924E-2
1.275094651E0,3.695189953E-4,-2.441957593E-3,-3.189086914E-2,3.198636015E-2
1.279824547E0,-1.158890128E-2,-6.571412086E-5,1.823329926E-2,2.160463267E-2
1.284554391E0,-1.629622281E-2,2.846478671E-2,4.419898987E-2,5.503963722E-2
1.289284287E0,-4.259586334E-3,-9.746327996E-3,3.908252716E-2,4.050406047E-2
1.294014130E0,2.956569195E-3,3.070711344E-2,3.400707245E-2,4.591458476E-2
1.298744026E0,5.307406187E-3,4.230521992E-2,-1.887321472E-3,4.267859153E-2
1.303473922E0,-4.317164421E-3,3.978766501E-3,-8.993148804E-3,1.073988905E-2
1.308203766E0,5.217015743E-3,2.052020282E-2,-1.129245758E-2,2.399615751E-2
1.312933662E0,2.411141992E-2,1.801597327E-2,1.254367828E-2,3.260797032E-2
1.317663505E0,-7.009029388E-3,1.790601015E-2,2.193927765E-2,2.917333708E-2
1.322393401E0,2.022385597E-4,1.150973141E-3,3.837394714E-2,3.839173686E-2
1.327123297E0,-9.322881699E-3,1.771596819E-2,3.567981720E-2,4.091235764E-2
1.331853141E0,-6.897866726E-3,1.280405372E-2,2.588748932E-2,2.969320563E-2
1.336583037E0,5.032300949E-3,1.505624503E-2,-4.434585571E-4,1.588115936E-2
1.341312932E0,9.712129831E-3,1.491553336E-2,-1.943206787E-2,2.635154385E-2
1.346042776E0,1.429545879E-2,1.712017506E-2,9.221076965E-3,2.413480468E-2
1.350772672E0,4.652589560E-3,1.930645108E-2,2.576351166E-2,3.252912812E-2
1.355502516E0,-7.198929787E-3,2.616512775E-2,3.504180908E-2,4.432117873E-2
1.360232412E0,-1.188644767E-2,-1.868084073E-4,3.237628937E-2,3.448980500E-2
1.364962307E0,-2.346962690E-3,-7.325939834E-3,2.261161804E-2,2.388436515E-2
1.369692151E0,7.198989391E-3,4.560634494E-3,1.054763794E-3,8.587046169E-3
1.374422047E0,2.392351627E-3,2.132482827E-3,5.794525146E-3,6.621733231E-3
1.379151891E0,-8.544325829E-5,-5.052186549E-3,9.994506836E-4,5.150804902E-3
1.383881787E0,-7.234275341E-3,-7.372513413E-3,2.473354340E-2,2.680367256E-2
1.388611682E0,2.377671003E-2,-4.982151091E-3,3.639507294E-2,4.375791475E-2
1.393341526E0,9.363800287E-3,-2.163259685E-2,1.947116852E-2,3.057411333E-2
1.398071422E0,2.350357175E-2,-2.624585479E-2,-6.807327271E-3,3.588317828E-2
1.402801266E0,1.970171928E-3,-2.604389191E-2,-6.752014160E-3,2.697694531E-2
1.407531162E0,6.703376770E-3,-1.631854475E-2,-2.568912506E-2,3.116346112E-2
1.412261057E0,1.368594170E-2,-4.328563809E-3,-3.022098541E-2,3.345667981E-2
1.416990953E0,8.796751499E-3,-2.327320725E-2,1.039028168E-2,2.696262164E-2
1.421720797E0,-7.711946964E-4,-2.781434357E-2,2.454948425E-2,3.710673290E-2
1.426450693E0,1.582860947E-3,-2.759779990E-2,7.726669312E-3,2.870270765E-2
1.431180537E0,1.657038927E-3,-2.500891685E-2,2.190494537E-2,3.328690932E-2
1.435910432E0,-7.795065641E-3,-3.193969280E-2,5.101203918E-3,3.327054712E-2
1.440640276E0,-1.250523329E-2,-2.691277117E-2,3.108978271E-4,2.967784980E-2
1.445370172E0,1.608976722E-2,-4.807332158E-2,-4.439353943E-3,5.088843405E-2
1.450100068E0,-5.439043045E-3,-2.635137737E-2,-2.028465271E-3,2.698319755E-2
1.454829912E0,-6.440877914E-4,-1.430625468E-2,2.736091614E-3,1.457977947E-2
1.459559807E0,1.764893532E-3,-7.082097232E-3,3.376007080E-4,7.306498794E-3
1.464289651E0,-1.246488094E-2,-1.173119247E-2,9.830474854E-3,1.973910762E-2
1.469019547E0,1.138207316E-2,-1.877187192E-2,-9.244918823E-3,2.382022857E-2
1.473749443E0,6.654143333E-3,5.023881793E-3,-4.422187805E-3,9.437836445E-3
1.478479287E0,4.311591387E-3,-9.307332337E-3,-4.387855530E-3,1.115659140E-2
1.483209182E0,-4.991292953E-4,-1.399330795E-2,3.976821899E-4,1.400785310E-2
1.487939026E0,-2.810835838E-3,-1.861326396E-2,1.226329803E-2,2.246648331E-2
1.492668922E0,1.933455467E-3,1.956763119E-2,1.690959930E-2,2.593385796E-2
1.497398818E0,4.264086485E-3,1.709830761E-2,2.151966095E-2,2.781421155E-2
1.502128662E0,-1.473484933E-2,2.168737352E-2,2.346038818E-3,2.632416861E-2
1.506858557E0,-1.461102068E-2,4.870094359E-3,-4.863739014E-5,1.540136715E-2
1.511588453E0,-3.110755980E-2,1.671045274E-2,2.326965332E-3,3.538833530E-2
1.516318297E0,9.456872940E-3,7.058620453E-3,-9.563446045E-3,1.518934063E-2
1.521048193E0,4.631400108E-3,1.648038626E-2,1.663112640E-2,2.386728647E-2
1.525778037E0,-1.199641824E-2,1.875738800E-2,1.886844635E-2,2.918513188E-2
1.530507932E0,-1.664312184E-2,2.333337814E-2,6.839752197E-3,2.946561131E-2
1.535237828E0,-2.359677851E-2,1.843157411E-2,2.577686310E-2,3.950920844E-2
1.539967672E0,3.717541695E-4,4.017844796E-3,2.081298828E-2,2.120051318E-2
1.544697568E0,-1.947224140E-3,-3.183305264E-3,1.645088196E-3,4.078164958E-3
1.549427412E0,-1.901477575E-3,1.584736258E-2,-7.438659668E-4,1.597835580E-2
1.554157307E0,-1.138088107E-2,1.482129097E-3,6.384849548E-3,1.313344830E-2
1.558887203E0,-1.131254435E-2,3.709522635E-2,2.295207977E-2,4.506470285E-2
1.563617047E0,-1.359082758E-2,1.540277153E-2,6.141662598E-3,2.144005561E-2
1.568346943E0,3.114968538E-3,1.769026369E-2,1.796340942E-2,2.540339616E-2
1.573076839E0,1.501804590E-2,-6.158433855E-3,3.567695618E-3,1.661915949E-2
1.577806682E0,1.014620066E-2,1.764682680E-2,1.303386688E-2,2.417100680E-2
1.582536578E0,2.665352821E-2,3.209657967E-3,1.055145264E-2,2.884520104E-2
1.587266422E0,1.453357935E-2,-1.577007771E-2,2.945709229E-2,3.643680235E-2
1.591996318E0,-6.982296705E-3,-8.476771414E-3,2.208995819E-2,2.466930023E-2
1.596726214E0,-6.951242685E-3,8.253090084E-3,1.003646851E-2,1.473648435E-2
1.601456057E0,9.726732969E-3,1.772034913E-2,1.469993591E-2,2.499416379E-2
1.606185953E0,2.070963383E-4,1.515255123E-2,-1.153945923E-2,1.904735722E-2
1.610915797E0,-4.541575909E-3,-1.113457233E-2,-6.694793701E-3,1.376317098E-2
1.615645693E0,9.742170572E-3,-1.111623645E-2,-2.800750732E-2,3.166861327E-2
1.620375589E0,-2.208411694E-3,-1.338602602E-2,5.463600159E-3,1.462578892E-2
1.625105432E0,-1.168495417E-2,-1.088786125E-2,-4.077911377E-3,1.648372038E-2
1.629835328E0,-6.809473038E-3,-2.503030747E-2,7.038116455E-4,2.594957738E-2
1.634565172E0,1.455870271E-2,-1.288305968E-2,1.494312286E-2,2.451990971E-2
1.639295068E0,-2.294212580E-3,-1.027594507E-2,-4.168510437E-3,1.132408661E-2
1.644024964E0,-7.021754980E-3,-2.676840127E-2,-2.075290680E-2,3.459097411E-2
1.648754807E0,-1.176685095E-2,-2.893546969E-2,-2.532768250E-2,4.021457059E-2
1.653484703E0,1.745223999E-4,-2.220720053E-4,-2.274131775E-2,2.274307163E-2
1.658214547E0,-6.976217031E-3,1.638281345E-2,-5.931854248E-3,1.876835303E-2
1.662944443E0,-6.888568401E-3,-2.890849859E-2,1.238822937E-3,2.974371106E-2
1.667674339E0,-1.157811284E-2,-1.203683764E-2,-1.301670074E-2,2.117481182E-2
1.672404182E0,-1.145181060E-2,9.499460459E-3,-2.715301514E-2,3.096239568E-2
1.677134078E0,-1.858472824E-3,7.057875395E-3,-3.167438507E-2,3.250437195E-2
1.681863974E0,-4.187285900E-3,-7.262580097E-3,-4.090976715E-2,4.175987885E-2
1.686593818E0,-6.467968225E-3,-4.900835454E-3,-2.395153046E-2,2.528890295E-2
1.691323714E0,1.023504138E-2,1.414565742E-2,-1.144409180E-5,1.746012104E-2
1.696053557E0,7.111430168E-4,1.635593921E-2,-7.135391235E-3,1.785878719E-2
1.700783453E0,3.166079521E-3,2.095119655E-2,-1.657581329E-2,2.690230999E-2
1.705513349E0,7.975012064E-3,-2.952404320E-3,-3.068351746E-2,3.184015942E-2
1.710243193E0,5.563914776E-3,1.370221376E-2,-3.755187988E-2,4.035903235E-2
1.714973089E0,2.688589692E-2,-3.076978028E-3,-1.824665070E-2,3.263831351E-2
1.719702984E0,2.949863672E-3,1.707918942E-3,5.645751953E-3,6.594937294E-3
1.724432828E0,7.703065872E-3,1.676179469E-3,1.746749878E-2,1.916403702E-2
1.729162724E0,2.834707499E-3,3.990389407E-3,3.079414368E-3,5.782868412E-3
1.733892568E0,-4.281550646E-3,1.537770033E-3,-2.068901062E-2,2.118328523E-2
1.738622464E0,5.280792713E-3,8.631408215E-3,-3.951168060E-2,4.078677339E-2
1.743352359E0,-6.547510624E-3,-1.276842505E-2,-2.731227875E-2,3.085227940E-2
1.748082203E0,-1.358591020E-2,-5.528606474E-3,-2.471160889E-2,2.873684150E-2
1.752812099E0,-1.344291866E-2,8.717134595E-3,-3.138542175E-3,1.632638798E-2
1.757541943E0,-6.207406521E-3,1.337529719E-2,1.113128662E-2,1.847528112E-2
1.762271839E0,-1.406073570E-3,-2.233666927E-2,-5.579948425E-3,2.306598494E-2
1.767001734E0,-3.766536713E-3,8.698150516E-3,6.337165833E-3,1.140194247E-2
1.771731578E0,-1.568995416E-2,1.807704568E-2,-1.745510101E-2,2.962490158E-2
1.776461474E0,-8.492648602E-3,-1.295500994E-2,-7.812500000E-3,1.734913597E-2
1.781191318E0,8.227229118E-3,-1.758288592E-2,-1.487064362E-2,2.445365449E-2
1.785921214E0,5.729556084E-3,6.289884448E-3,-1.949310303E-2,2.126902736E-2
1.790651109E0,5.711883307E-3,3.904245794E-3,-1.458358765E-2,1.614155429E-2
1.795380953E0,-3.774046898E-3,-3.239020705E-3,1.402664185E-2,1.488225005E-2
1.800110849E0,1.007020473E-3,-2.219349891E-2,3.052902222E-2,3.775694216E-2
1.804840745E0,8.122384548E-3,-2.199683338E-2,2.552604675E-2,3.466140321E-2
1.809570589E0,-1.096588373E-2,-7.586136460E-3,-1.029777527E-2,1.684767782E-2
1.814300484E0,1.289644837E-2,-1.463439316E-2,-1.496124268E-2,2.458297431E-2
1.819030328E0,9.480714798E-4,-1.687487215E-2,-2.433395386E-2,2.962771439E-2
1.823760224E0,1.043748856E-2,-2.147232741E-2,-7.513046265E-3,2.502894077E-2
1.828490120E0,1.509985328E-2,-1.890827715E-2,1.866531372E-2,3.056014480E-2
1.833219964E0,3.156590462E-2,-3.060974181E-2,4.462814331E-2,6.265009021E-2
1.837949859E0,9.908080101E-3,-1.132205129E-2,2.763748169E-2,3.146727333E-2
1.842679703E0,1.222944260E-2,6.832107902E-4,-3.457069397E-3,1.272703312E-2
1.847409599E0,1.212856174E-2,7.839389145E-3,1.081562042E-2,1.804260727E-2
1.852139495E0,9.654402733E-3,-1.358231157E-2,3.603935242E-3,1.704919438E-2
1.856869339E0,4.798531532E-3,-1.586660743E-3,1.069641113E-2,1.183032579E-2
1.861599234E0,-2.362579107E-3,-1.346093416E-2,3.909683228E-2,4.141667324E-2
1.866329130E0,-9.464293718E-3,5.655385554E-3,3.639698029E-2,3.803020399E-2
1.871058974E0,-7.095009089E-3,-8.652627468E-3,2.858161926E-3,1.154886166E-2
1.875788870E0,7.181853056E-3,-1.474827528E-3,1.470470428E-2,1.643114292E-2
1.880518714E0,-7.121533155E-3,3.173030913E-2,-1.153373718E-2,3.450443226E-2
1.885248609E0,-1.418332756E-2,2.429823577E-2,9.928703308E-3,2.983538489E-2
1.889978505E0,4.872173071E-3,1.930148154E-2,-2.022743225E-3,2.000941654E-2
1.894708349E0,-1.181516051E-2,-6.993241608E-3,2.743721008E-3,1.400112321E-2
1.899438245E0,-6.995826960E-3,2.544119954E-3,4.070663452E-2,4.138168961E-2
1.904168089E0,-9.310364723E-3,3.339856118E-2,1.900196075E-2,3.953759341E-2
1.908897984E0,2.933144569E-4,2.600876242E-2,2.223014832E-3,2.610523991E-2
1.913627880E0,-2.081960440E-3,4.464872181E-3,2.119731903E-2,2.176226038E-2
1.918357724E0,5.002260208E-3,2.093702555E-3,-3.120803833E-2,3.167566659E-2
1.923087620E0,-1.168528199E-2,3.532680124E-2,-4.831314087E-3,3.752159774E-2
1.927817464E0,-4.463821650E-3,4.124030471E-3,2.132320404E-2,2.217233325E-2
1.932547359E0,1.928770542E-2,8.821211755E-3,1.402282715E-2,2.542575542E-2
1.937277255E0,1.354217529E-4,-1.500977576E-2,1.628017426E-2,2.214397844E-2
1.942007099E0,2.480983734E-3,1.596172154E-2,-4.558086395E-2,4.835852555E-2
1.946736995E0,-4.661083221E-3,6.286151707E-3,-1.671314240E-2,1.845455306E-2
1.951466891E0,2.630022168E-2,1.096607000E-2,-2.369785309E-2,3.706136253E-2
1.956196734E0,9.463965893E-3,-5.731120706E-3,-1.163005829E-2,1.605212294E-2
1.960926630E0,1.656582952E-2,1.365385950E-3,7.457733154E-3,1.821836354E-2
1.965656474E0,2.363696694E-2,6.057091057E-3,-2.102851868E-3,2.449115237E-2
1.970386370E0,1.629072428E-2,-5.908586085E-3,1.215934753E-2,2.116952573E-2
1.975116266E0,-7.613331079E-3,6.023861468E-3,-2.185821533E-3,9.951257854E-3
1.979846109E0,-1.704515517E-2,-1.194000244E-3,-3.065776825E-2,3.509788748E-2
1.984576005E0,2.105641365E-2,-1.228511333E-3,-3.989982605E-2,4.513178386E-2
1.989305849E0,-1.000982523E-2,-8.328244090E-3,-3.952980042E-3,1.360817041E-2
1.994035745E0,-7.579386234E-3,3.595143557E-3,-1.341629028E-2,1.582305273E-2
1.998765641E0,9.161382914E-3,-8.350014687E-3,-3.808975220E-3,1.296772819E-2
2.003495484E0,-5.100965500E-3,-2.016641200E-2,1.283931732E-2,2.444487863E-2
2.008225380E0,-2.800822258E-4,-2.241697162E-2,-1.513481140E-3,2.246975051E-2
2.012955276E0,-5.024701357E-3,-2.221844345E-2,-3.874778748E-3,2.310672550E-2
2.017685120E0,-9.758263826E-3,-3.389232606E-2,-8.590698242E-3,3.630032472E-2
2.022415016E0,2.223879099E-3,-1.223007590E-2,-1.397132874E-3,1.250889183E-2
2.027144859E0,-7.289886475E-3,-1.923888177E-2,-6.134033203E-3,2.146866041E-2
2.031874755E0,-2.479523420E-3,-1.663577557E-2,2.953052521E-2,3.398454037E-2
2.036604651E0,-3.329268098E-2,9.659416974E-3,7.916450500E-3,3.555808110E-2
2.041334495E0,-1.876872778E-2,-9.430259466E-3,-1.646041870E-3,2.106903866E-2
2.046064391E0,-1.991957426E-3,-2.189047635E-3,2.448272705E-2,2.466097621E-2
2.050794234E0,-1.147091389E-2,-1.643320173E-2,-1.608181000E-2,2.569545869E-2
2.055524130E0,-1.369093359E-2,-6.844125688E-3,-1.704216003E-3,1.540091137E-2
2.060254026E0,-1.675993204E-3,5.067646503E-3,-4.205131531E-2,4.238871446E-2
2.064983870E0,-4.006057978E-3,1.453448832E-2,3.407478333E-3,1.545673833E-2
2.069713766E0,3.122031689E-3,-6.915286183E-3,-1.368522644E-3,7.709806683E-3
2.074443609E0,1.499626040E-2,9.715408087E-3,2.950572968E-2,3.449442077E-2
2.079173505E0,-1.127177477E-2,2.551421523E-3,3.638267517E-2,3.817409738E-2
2.083903401E0,-2.064466476E-2,1.916091889E-2,7.588386536E-3,2.917064631E-2
2.088633245E0,1.279520988E-2,9.516373277E-3,1.939582825E-2,2.510929927E-2
2.093363141E0,-1.526504755E-3,1.662816107E-2,-4.249477386E-2,4.565776783E-2
2.098092984E0,-1.540929079E-3,2.127807587E-2,-3.264331818E-2,3.899637415E-2
2.102822880E0,1.749488711E-2,9.241729975E-3,2.223396301E-2,2.976289232E-2
2.107552776E0,5.536943674E-3,9.120248258E-3,3.154277802E-2,3.329840114E-2
2.112282620E0,5.491822958E-3,2.564579248E-2,2.415752411E-2,3.565743629E-2
2.117012516E0,7.849693298E-3,-3.018267453E-3,1.208591461E-2,1.472402646E-2
2.121742359E0,2.680724859E-2,-2.432027459E-2,-1.175594330E-2,3.805662276E-2
2.126472255E0,9.965866804E-3,-9.833276272E-3,4.057216644E-2,4.291983823E-2
2.131202151E0,2.761095762E-3,9.252063930E-3,1.649284363E-2,1.911120686E-2
2.135931995E0,1.458171010E-2,-1.215218008E-2,2.822780609E-2,3.401633118E-2
2.140661891E0,-4.502892494E-3,1.882547885E-2,6.624221802E-3,2.045861699E-2
2.145391787E0,-6.809413433E-3,2.108369023E-2,1.606464386E-2,2.736718632E-2
2.150121630E0,-1.149961352E-2,1.142311841E-2,8.808135986E-3,1.844754740E-2
2.154851526E0,-6.654173136E-3,1.846208423E-2,1.823234558E-2,2.678703044E-2
2.159581370E0,5.250573158E-4,4.075065255E-3,2.282810211E-2,2.319491513E-2
2.164311266E0,1.711258292E-2,6.426975131E-3,-1.102447510E-3,1.831288874E-2
2.169041162E0,7.474988699E-3,-7.650256157E-4,-3.670597076E-2,3.746717243E-2
2.173771005E0,-2.816939354E-2,6.404735148E-3,8.708000183E-3,3.017224937E-2
2.178500901E0,-1.597715914E-2,2.301058173E-2,-5.610466003E-3,2.856980600E-2
2.183230797E0,-2.768465877E-2,-3.312796354E-3,-1.268768311E-2,3.063318875E-2
2.187960641E0,-2.276124060E-2,-5.647607148E-3,-1.970195770E-2,3.062901692E-2
2.192690537E0,-1.304517686E-2,-3.214672208E-3,2.794456482E-2,3.100660349E-2
2.197420380E0,-8.187115192E-3,1.542910933E-3,1.596450806E-3,8.482811120E-3
2.202150276E0,-1.023262739E-3,8.664973080E-3,1.820373535E-2,2.018674827E-2
2.206880172E0,-1.522980630E-2,-5.697332323E-3,-5.690574646E-3,1.722757195E-2
2.211610016E0,-1.267017424E-2,1.332733035E-2,-3.176021576E-2,3.669962336E-2
2.216339912E0,-2.446243167E-2,1.557366550E-2,-3.624439240E-2,4.641772938E-2
2.221069755E0,-1.710692048E-2,3.554902971E-3,6.791114807E-3,1.874575429E-2
2.225799651E0,-5.035638809E-3,-1.311124116E-2,2.097797394E-2,2.524554799E-2
2.230529495E0,1.640316844E-2,-1.776777208E-2,3.504657745E-2,4.257957551E-2
2.235259391E0,-2.668708563E-3,-3.182514012E-2,2.525711060E-2,4.071711169E-2
2.239989287E0,2.187967300E-3,-5.462542176E-3,-1.072883606E-3,5.981441897E-3
2.244719130E0,1.175305247E-2,-5.433760583E-3,-1.768589020E-2,2.191918586E-2
2.249449026E0,1.880767941E-2,-5.707740784E-4,-1.516342163E-2,2.416575974E-2
2.254178922E0,4.435867071E-3,-1.720179617E-2,-3.167152405E-3,1.804465468E-2
2.258908766E0,-3.480613232E-4,-5.147501826E-3,1.110363007E-2,1.224371359E-2
2.263638662E0,6.778329611E-3,-5.036681890E-3,-8.583068848E-4,8.488262925E-3
2.268368505E0,1.859360933E-2,4.512853920E-3,1.814270020E-2,2.636751276E-2
2.273098401E0,1.128879189E-2,6.860375404E-3,-5.748748779E-3,1.440658480E-2
2.277828297E0,1.826158166E-2,6.814934313E-3,-2.469253540E-2,3.145870307E-2
2.282558141E0,1.101738214E-2,2.811023593E-2,-3.160858154E-2,4.371121710E-2
2.287288037E0,3.776282072E-3,-5.728602409E-4,-2.184772491E-2,2.217907931E-2
2.292017932E0,-1.058459282E-3,1.847751439E-3,-2.166366577E-2,2.176807148E-2
2.296747776E0,-3.450900316E-3,-5.335286260E-3,2.258300781E-3,6.743434947E-3
2.301477672E0,6.076067686E-3,-2.847276628E-3,1.173686981E-2,1.351960413E-2
2.306207516E0,8.429646492E-3,1.380795985E-2,-7.354736328E-3,1.777106755E-2
2.310937412E0,1.313748956E-2,1.836750656E-2,-1.679229736E-2,2.814143173E-2
2.315667307E0,2.487227321E-2,8.759543300E-3,-4.276657104E-2,5.024280219E-2
2.320397151E0,5.616217852E-3,-7.920764387E-3,-3.291225433E-2,3.431467466E-2
2.325127047E0,-1.580148935E-3,-1.736810803E-2,-5.162906647E-2,5.449503236E-2
2.329856943E0,5.499571562E-3,-1.486671716E-2,-8.443641663E-2,8.591142543E-2
2.334586787E0,-1.752763987E-3,-1.707679778E-2,-5.761432648E-2,6.011738367E-2
2.339316682E0,2.954542637E-3,-1.932537556E-2,-1.535415649E-4,1.955052525E-2
2.344046526E0,-2.321220934E-2,-2.867617458E-2,-4.899978638E-3,3.721746152E-2
2.348776422E0,-1.354961097E-2,-4.264267534E-2,7.012367249E-3,4.528976719E-2
2.353506318E0,3.212422132E-3,-2.565581352E-2,2.204895020E-3,2.594999008E-2
2.358236162E0,1.505774260E-2,-4.202087224E-2,9.308815002E-3,4.559762441E-2
2.362966057E0,-4.030823708E-3,-1.557106525E-2,-1.451110840E-2,2.166282252E-2
2.367695901E0,3.098338842E-3,-1.785989851E-2,-1.201534271E-2,2.174727888E-2
2.372425797E0,1.500153542E-2,-1.535367966E-2,-9.543418884E-3,2.349166635E-2
2.377155693E0,1.012983918E-2,-5.745127797E-3,1.665115356E-2,2.031947466E-2
2.381885537E0,1.004675031E-2,-3.282926977E-3,1.651287079E-2,1.960585889E-2
2.386615432E0,-8.971899748E-3,-1.039476693E-2,4.503250122E-3,1.445079327E-2
2.391345276E0,1.244303584E-2,-1.507319510E-2,-1.690101624E-2,2.583940211E-2
2.396075172E0,4.130601883E-4,-5.496196449E-3,-1.401901245E-4,5.513478702E-3
2.400805068E0,-1.389057934E-2,1.599125564E-3,-9.634971619E-3,1.698052046E-2
2.405534912E0,-1.988112926E-3,6.317347288E-3,-4.804611206E-3,8.182038781E-3
2.410264807E0,3.757774830E-4,6.277166307E-3,1.422977448E-2,1.555732969E-2
2.414994703E0,7.411301136E-3,-8.007563651E-3,2.123641968E-2,2.387538441E-2
2.419724547E0,-4.519850016E-3,-1.027479768E-2,4.242515564E-2,4.388501273E-2
2.424454443E0,1.448386908E-2,2.543476224E-2,-1.253223419E-2,3.183969986E-2
2.429184287E0,1.442173123E-2,1.436866820E-3,-1.717853546E-2,2.247560897E-2
2.433914182E0,-9.467095137E-3,6.184898317E-3,4.469394684E-2,4.610236156E-2
2.438644026E0,-4.637926817E-3,-3.350004554E-3,1.155462265E-1,1.156877839E-1
2.443373922E0,-6.915450096E-3,8.531145751E-3,3.385925293E-2,3.559568663E-2
2.448103818E0,-6.884962320E-3,1.377791166E-3,-4.714298248E-2,4.766300255E-2
2.452833662E0,-1.635070145E-2,3.753677011E-3,-2.775478363E-2,3.243090414E-2
2.457563557E0,-4.399299622E-3,1.085656136E-2,-2.752113342E-2,2.991039195E-2
2.462293453E0,3.294348717E-4,1.080476493E-2,-5.923271179E-3,1.232625709E-2
2.467023297E0,-9.254276752E-3,-8.210569620E-3,5.585670471E-2,5.721037103E-2
2.471753193E0,-6.858289242E-3,-1.047535986E-2,9.100627899E-2,9.186355159E-2
2.476483037E0,3.593483567E-2,2.286172658E-2,5.226039886E-2,6.741750697E-2
2.481212932E0,1.901796460E-2,2.980612963E-2,1.858711243E-2,3.994457522E-2
2.485942828E0,4.645019770E-3,5.801014602E-3,-2.192974091E-2,2.315472987E-2
2.490672672E0,1.164492965E-2,2.710401267E-2,-5.973243713E-2,6.661978636E-2
2.495402568E0,-1.462270319E-2,2.918011695E-2,-1.043434143E-1,1.093290939E-1
2.500132412E0,-3.396868706E-4,2.414418757E-2,-7.023334503E-2,7.426829697E-2
2.504862307E0,1.924753189E-3,7.307201624E-3,-3.878116608E-2,3.951048864E-2
2.509592203E0,-5.210042000E-4,2.144598961E-2,1.140022278E-2,2.429335290E-2
2.514322047E0,8.924633265E-3,3.781338781E-2,2.555179596E-2,4.650156614E-2
2.519051943E0,8.766502142E-3,3.507966548E-2,3.973960876E-3,3.637618528E-2
2.523781787E0,-1.747776568E-2,3.236797452E-2,8.688926697E-3,3.779755964E-2
2.528511682E0,-1.973369718E-2,2.962119132E-2,-3.886699677E-2,5.270177622E-2
2.533241578E0,-7.725358009E-3,1.508500427E-2,-2.429771423E-2,2.962460847E-2
2.537971422E0,-1.006165147E-2,2.444065362E-2,-2.884197235E-2,3.912086079E-2
2.542701318E0,-2.902656794E-2,1.478055865E-2,-3.097534180E-2,4.494973147E-2
2.547431214E0,-3.590518236E-2,2.173613012E-2,5.000305176E-2,6.528358644E-2
2.552161057E0,-3.085629642E-2,-1.169982553E-2,5.670833588E-2,6.561122087E-2
2.556890953E0,-9.258657694E-3,1.684299111E-2,2.062416077E-2,2.819157852E-2
2.561620849E0,-2.814456820E-2,-2.335004508E-3,2.994728088E-2,4.116319470E-2
2.566350693E0,-2.078682184E-2,-2.129851282E-2,1.782608032E-2,3.469132096E-2
2.571080589E0,-1.108720899E-2,-1.401533186E-2,-1.081275940E-2,2.088711316E-2
2.575810432E0,8.772611618E-4,-4.447154701E-3,2.963733673E-2,2.998196959E-2
2.580540328E0,-1.559793949E-3,-1.626911759E-2,4.126167297E-2,4.438065796E-2
2.585270172E0,1.739048958E-2,-2.561917156E-2,7.653331757E-2,8.255979516E-2
2.590000068E0,-1.118591428E-2,-1.680940390E-3,5.690002441E-2,5.801347272E-2
2.594729964E0,-1.349337399E-2,-3.011501580E-2,7.542037964E-2,8.232386643E-2
2.599459807E0,-1.812815666E-2,-2.267369628E-2,6.767082214E-2,7.363468433E-2
2.604189703E0,-3.702670336E-3,-3.434452415E-2,5.523395538E-2,6.514634244E-2
2.608919599E0,-1.325100660E-3,-2.217659354E-2,6.189727783E-2,6.576344118E-2
2.613649443E0,1.533544064E-2,-3.384931386E-2,7.325267792E-2,8.213955570E-2
2.618379339E0,2.467709780E-2,-3.833228350E-2,9.163665771E-2,1.023503793E-1
2.623109182E0,1.263022423E-2,-3.087943047E-2,6.713008881E-2,7.496339516E-2
2.627839078E0,2.210804820E-2,-3.301376849E-2,4.757499695E-2,6.198431285E-2
2.632568974E0,1.723325253E-2,-1.136109233E-2,2.106189728E-2,2.949004796E-2
2.637298818E0,2.655905485E-2,-3.499617428E-2,1.613903046E-2,4.680367414E-2
2.642028714E0,2.630993724E-2,-1.327002048E-2,1.838016510E-2,3.472947898E-2
2.646758557E0,1.899808645E-2,-3.651112318E-3,1.585197449E-2,2.501085775E-2
2.651488453E0,1.878413558E-2,-1.206330955E-3,2.521800995E-2,3.146819044E-2
2.656218349E0,-3.645420074E-4,1.217313111E-3,2.738189697E-2,2.741136669E-2
2.660948193E0,1.388472319E-2,1.275867224E-3,-1.320552826E-2,1.920414934E-2
2.665678089E0,1.368489861E-2,-1.534207910E-2,-2.971267700E-2,3.613168991E-2
2.670407932E0,2.063828707E-2,-3.182003647E-2,-5.722045898E-3,3.835616539E-2
2.675137828E0,4.409518838E-2,-2.919747680E-2,-7.452106476E-2,9.137979745E-2
2.679867724E0,2.467918396E-2,-5.228690803E-3,-2.879047394E-2,3.827914208E-2
2.684597568E0,2.922379971E-2,4.324704409E-3,-4.042148590E-2,5.006625670E-2
2.689327464E0,7.586091757E-3,-1.709465683E-2,-4.957962036E-2,5.298976161E-2
2.694057359E0,1.704898477E-2,-7.444657385E-3,-7.053470612E-2,7.294679960E-2
2.698787203E0,-9.150773287E-3,2.096444368E-3,-1.079359055E-1,1.083433958E-1
2.703517099E0,-2.007693052E-3,-7.434383035E-3,-9.753799438E-2,9.784151078E-2
2.708246943E0,-1.863713562E-2,-7.360719144E-3,-8.010482788E-2,8.257303713E-2
2.712976839E0,-1.141530275E-2,2.208158374E-3,-7.468795776E-2,7.558753955E-2
2.717706734E0,-9.002238512E-3,-4.950962961E-3,-5.982017517E-2,6.069601049E-2
2.722436578E0,-4.177600145E-3,-2.066344023E-4,-6.169605255E-2,6.183767412E-2
2.727166474E0,-1.366648078E-2,1.874303818E-2,-9.441947937E-2,9.722711690E-2
2.731896370E0,-1.595388353E-2,2.800975740E-2,-1.078777313E-1,1.125907537E-1
2.736626214E0,-1.347360015E-2,2.063789964E-2,-1.069774628E-1,1.097799542E-1
2.741356109E0,2.222403884E-2,1.335594058E-2,-1.060848236E-1,1.092075036E-1
2.746085953E0,-1.701593399E-3,2.512632310E-2,-6.721496582E-2,7.177798523E-2
2.750815849E0,5.408167839E-3,2.018110454E-2,-5.240917206E-2,5.642026742E-2
2.755545745E0,6.164312363E-4,4.848671705E-2,-3.535270691E-2,6.000962925E-2
2.760275589E0,-2.078315616E-2,3.859777004E-2,-1.368904114E-2,4.592512688E-2
2.765005484E0,-1.615732908E-3,3.591291606E-2,-2.307128906E-2,4.271571739E-2
2.769735328E0,7.450282574E-4,4.031749815E-2,-1.338291168E-2,4.248715158E-2
2.774465224E0,7.862597704E-3,3.521647304E-2,-1.564502716E-2,3.932921676E-2
2.779195120E0,-1.116690040E-2,4.677547514E-2,-6.019592285E-3,4.846524766E-2
2.783924964E0,5.546808243E-3,4.636969417E-2,1.064968109E-2,4.789917877E-2
2.788654859E0,-6.425678730E-3,3.175009787E-2,3.430461884E-2,4.718225233E-2
2.793384703E0,7.788419724E-3,4.099305347E-2,3.876781464E-2,5.695641637E-2
2.798114599E0,-4.145890474E-3,2.457201481E-4,5.743789673E-2,5.758785260E-2
2.802844495E0,-8.829534054E-3,2.634332329E-2,4.508686066E-2,5.295995050E-2
2.807574339E0,5.519300699E-3,-4.726909101E-3,2.809143066E-2,2.901611322E-2
2.812304234E0,5.446493626E-3,7.167227566E-3,3.260707855E-2,3.382683869E-2
2.817034078E0,1.006570458E-2,2.428583801E-3,3.708553314E-2,3.850393742E-2
2.821763974E0,5.206137896E-3,3.331166506E-2,5.814552307E-2,6.721363518E-2
2.826493870E0,-9.109199047E-3,1.402413100E-2,5.291461945E-2,5.549424032E-2
2.831223714E0,-6.685942411E-3,-1.926141977E-2,4.297733307E-2,4.756842729E-2
2.835953609E0,-1.855655015E-2,-4.815839231E-3,1.650619507E-2,2.529806982E-2
2.840683505E0,-1.753360033E-3,-9.541518986E-3,6.871223450E-3,1.188816923E-2
2.845413349E0,2.982735634E-3,1.858174801E-5,4.441261292E-3,5.349940093E-3
2.850143245E0,-4.220128059E-3,1.668930054E-6,6.778717041E-3,7.985016490E-3
2.854873089E0,-1.608251035E-2,-4.762627184E-3,3.758716583E-2,4.115974723E-2
2.859602984E0,-2.309831977E-2,4.727676511E-3,1.590633392E-2,2.844107523E-2
2.864332880E0,-3.940045834E-3,-1.432242244E-2,3.239440918E-2,3.563780986E-2
2.869062724E0,-3.962785006E-3,-2.852164954E-2,3.449916840E-2,4.493752082E-2
2.873792620E0,-1.107934117E-2,-2.355242521E-2,1.047134399E-2,2.805561582E-2
2.878522464E0,-8.697211742E-3,-1.630815864E-2,-2.047729492E-2,2.758472653E-2
2.883252359E0,1.508930326E-2,-1.384408772E-2,-1.081085205E-2,2.315643236E-2
2.887982255E0,3.122627735E-3,4.709437490E-4,-2.021789551E-2,2.046303718E-2
2.892712099E0,1.499775052E-2,-1.856985688E-2,6.065368652E-3,2.462845513E-2
2.897441995E0,1.713472605E-2,-3.505014628E-2,2.026271820E-2,4.396236277E-2
2.902171891E0,-1.633019745E-2,-4.901968688E-2,-1.314258575E-2,5.331353122E-2
2.906901734E0,1.930528879E-2,-4.150629044E-2,-2.490139008E-2,5.211089664E-2
2.911631630E0,1.247227192E-4,-4.357824475E-2,-3.893947601E-2,5.844109653E-2
2.916361474E0,4.845142365E-3,-2.904311568E-2,-5.376815796E-3,2.993139022E-2
2.921091370E0,1.902282238E-2,-3.130508214E-2,-1.245498657E-2,3.869111823E-2
2.925821266E0,3.308206797E-2,-2.159284055E-2,1.376438141E-2,4.183458115E-2
2.930551109E0,-7.524609566E-3,-3.330117464E-2,6.525993347E-3,3.475883443E-2
2.935281005E0,-1.698537171E-2,-3.066550195E-2,1.121997833E-2,3.680711583E-2
2.940010901E0,4.467606544E-3,-1.375152171E-2,-3.115653992E-3,1.479091469E-2
2.944740745E0,-7.439285517E-3,-2.787087113E-2,-1.258659363E-2,3.147301647E-2
2.949470641E0,4.494756460E-3,-3.712350130E-2,8.885383606E-3,3.843575453E-2
2.954200484E0,9.178459644E-3,-2.012647688E-2,1.830959320E-2,2.871515970E-2
2.958930380E0,4.326850176E-3,-1.514107734E-2,1.341152191E-2,2.068436065E-2
2.963660276E0,9.040713310E-3,-1.980764419E-2,6.176948547E-3,2.263254203E-2
2.968390120E0,1.614639163E-2,-1.013351977E-2,-2.236652374E-2,2.938801745E-2
2.973120016E0,1.120826602E-2,6.610892713E-3,1.563072205E-3,1.310619412E-2
2.977849859E0,-7.827281952E-4,-2.928316593E-3,-2.693843842E-2,2.710843348E-2
2.982579755E0,1.103925705E-2,3.037508577E-2,-1.246738434E-2,3.464024688E-2
2.987309651E0,1.092013717E-2,8.766323328E-3,-9.988784790E-3,1.720097794E-2
2.992039495E0,1.317644119E-2,2.297908068E-2,1.146221161E-2,2.886241581E-2
2.996769391E0,2.019071579E-2,1.327499002E-2,2.798652649E-2,3.697480262E-2
3.001499234E0,1.999533176E-2,3.691753745E-2,1.113414764E-2,4.343601164E-2
3.006229130E0,-3.940194845E-3,2.475009114E-2,-1.507282257E-2,2.924520690E-2
3.010959026E0,-1.815031469E-2,3.642781079E-2,-1.494693756E-2,4.335700941E-2
3.015688870E0,-1.562264562E-2,3.138995171E-2,-2.431869507E-2,4.267077517E-2
3.020418766E0,-2.018220723E-2,3.823481500E-2,-1.224708557E-2,4.493566147E-2
3.025148609E0,1.354634762E-3,3.083390743E-2,-2.746582031E-4,3.086487194E-2
3.029878505E0,-1.530280709E-2,4.958184808E-2,2.821826935E-2,5.906611795E-2
3.034608401E0,-1.288491488E-2,3.962760419E-2,2.560997009E-2,4.891051639E-2
3.039338245E0,-2.464723587E-2,3.453155607E-2,6.403923035E-3,4.290599994E-2
3.044068141E0,-1.966403425E-2,2.944950759E-2,-7.895469666E-3,3.628065851E-2
3.048798037E0,-2.896666527E-2,2.681396157E-2,-7.830619812E-3,4.024145671E-2
3.053527880E0,2.169042826E-3,5.151018500E-3,1.729965210E-3,5.850685259E-3
3.058257776E0,-9.604573250E-3,3.589832783E-2,2.070617676E-2,4.254037522E-2
3.062987620E0,-3.091841936E-2,9.496785700E-3,3.240394592E-2,4.578376684E-2
3.067717516E0,-9.291768074E-3,1.177579910E-2,2.263832092E-2,2.715695072E-2
3.072447412E0,-1.870901883E-2,2.194300294E-3,3.457069397E-3,1.915185808E-2
3.077177255E0,-6.709456444E-3,-1.864284277E-4,1.055049896E-2,1.250458275E-2
3.081907151E0,-1.383155584E-2,1.404325664E-2,1.046371460E-2,2.231623439E-2
3.086636995E0,2.932548523E-3,9.161181748E-3,3.174304962E-2,3.316848340E-2
3.091366891E0,-6.587415934E-3,1.613283157E-2,2.435493469E-2,2.994703904E-2
3.096096787E0,-6.559908390E-3,4.081666470E-3,1.228141785E-2,1.450950115E-2
3.100826630E0,-1.368355751E-2,-1.024322212E-2,2.683639526E-3,1.730217520E-2
3.105556526E0,5.396515131E-3,-1.254876703E-2,1.928138733E-2,2.362976570E-2
3.110286422E0,1.487827301E-2,-2.913616598E-2,1.436901093E-2,3.573160577E-2
3.115016266E0,5.110502243E-4,-4.787406325E-2,2.612113953E-2,5.453898638E-2
3.119746162E0,7.659614086E-3,-2.134625614E-2,2.827644348E-2,3.624761502E-2
3.124476005E0,7.540225983E-3,-1.403421909E-2,1.927375793E-3,1.604771294E-2
3.129205901E0,2.175208926E-2,-2.120234072E-3,-4.653930664E-4,2.186013199E-2
3.133935797E0,2.391782403E-2,-3.532893211E-2,-2.834320068E-3,4.275779602E-2
3.138665641E0,1.427963376E-2,-1.603115350E-2,-4.386901855E-4,2.147319892E-2
3.143395537E0,1.413351297E-2,-1.348323375E-2,-5.181312561E-3,2.020890351E-2
3.148125380E0,9.240567684E-3,-2.997744083E-2,-9.886741638E-3,3.289046534E-2
3.152855276E0,1.620224118E-2,-1.784442365E-2,-1.692390442E-2,2.945088480E-2
3.157585172E0,-6.074309349E-4,-2.243230492E-2,-2.390289307E-2,3.278605760E-2
3.162315016E0,1.124155521E-2,-1.276477426E-2,-2.607631683E-2,3.113336354E-2
3.167044912E0,8.746862411E-3,-1.032872498E-2,-4.485225677E-2,4.684992102E-2
3.171774755E0,3.898859024E-3,-1.500695199E-2,-3.973007202E-2,4.264842708E-2
3.176504651E0,1.099017262E-2,-1.017883420E-2,-4.652214050E-2,4.887435030E-2
3.181234547E0,1.346677542E-3,-7.735863328E-3,-7.224845886E-2,7.267390818E-2
3.185964391E0,3.711223602E-3,-1.240723580E-2,-5.740165710E-2,5.884439582E-2
3.190694287E0,3.681927919E-3,1.953497529E-3,-4.030418396E-2,4.051913117E-2
3.195424182E0,-1.774291694E-2,1.978136599E-3,-2.097415924E-2,2.754341086E-2
3.200154026E0,-8.096486330E-3,-1.944935322E-2,-1.371335983E-1,1.387424024E-1
3.204883922E0,-7.942318916E-3,-2.164973319E-2,8.955097198E-2,9.247252543E-2
3.209613766E0,-1.027742028E-2,-4.810124636E-3,-8.450698853E-2,8.526543131E-2
3.214343662E0,-1.256397367E-2,-1.900169998E-2,-4.344177246E-2,4.905207061E-2
3.219073557E0,-1.005563140E-2,-4.615984857E-3,-6.682205200E-2,6.773189554E-2
3.223803401E0,-2.424356341E-2,-2.134002745E-3,-9.712600708E-2,1.001287451E-1
3.228533297E0,-3.585371375E-2,-2.104003727E-2,-3.696441650E-2,5.562859018E-2
3.233263193E0,8.705258369E-5,-1.610471308E-2,1.247844696E-1,1.258194469E-1
3.237993037E0,-2.201110125E-3,-1.742362976E-3,1.830949783E-1,1.831164979E-1
3.242722932E0,-2.823984623E-2,-2.076547593E-2,1.103439331E-1,1.157777072E-1
3.247452776E0,-3.749948740E-2,5.535654724E-3,-6.388854980E-2,7.428729248E-2
3.252182672E0,-1.344445348E-2,7.874615490E-3,-1.037168503E-1,1.048806366E-1
3.256912568E0,9.134709835E-4,3.128543496E-3,-5.511283875E-3,6.402848084E-3
3.261642412E0,-2.758285403E-2,2.456611395E-2,1.115512848E-2,3.858425433E-2
3.266372307E0,-8.358180523E-3,3.149630129E-2,8.228683472E-2,8.850423348E-2
3.271102151E0,-1.300701499E-2,1.230928302E-2,8.634948730E-2,8.818693126E-2
3.275832047E0,-5.746394396E-3,1.221840829E-2,7.613182068E-2,7.731988534E-2
3.280561943E0,-1.006096601E-3,2.408366650E-2,3.751373291E-2,4.459053015E-2
3.285291787E0,-3.342092037E-3,2.392314374E-2,2.058315277E-2,3.173566706E-2
3.290021682E0,-1.043537259E-2,5.093961954E-5,5.602359772E-2,5.698721872E-2
3.294751526E0,1.523345709E-3,2.860818058E-2,7.929897308E-2,8.431533497E-2
3.299481422E0,1.335489750E-2,2.843993902E-2,6.677055359E-2,7.379356507E-2
3.304211318E0,1.431405544E-3,1.643006504E-2,6.621360779E-2,6.823663104E-2
3.308941162E0,-7.961601019E-3,6.809033453E-3,7.040691376E-2,7.118204501E-2
3.313671057E0,2.062460780E-2,6.707817316E-3,5.082607269E-2,5.525992151E-2
3.318400953E0,2.997946739E-2,1.859143376E-3,-4.693794250E-2,5.572607402E-2
3.323130797E0,2.501115203E-2,1.132348925E-2,5.682945251E-3,2.803702911E-2
3.327860693E0,3.198349476E-2,1.364346594E-2,5.074405670E-2,6.151461119E-2
3.332590537E0,1.512715220E-2,8.820138872E-3,-1.852989197E-2,2.549475397E-2
3.337320432E0,3.396713734E-2,1.585230976E-2,7.740974426E-3,3.827512023E-2
3.342050328E0,3.371390700E-2,1.487031579E-3,-2.793598175E-2,4.380933536E-2
3.346780172E0,2.393829823E-2,-1.987944543E-2,-3.007698059E-2,4.327654369E-2
3.351510068E0,3.798532486E-2,-1.967283338E-2,-2.507877350E-2,4.958679419E-2
3.356239912E0,2.577063441E-2,-1.477812976E-2,-2.961635590E-2,4.194814959E-2
3.360969807E0,1.608937979E-2,-1.941926032E-2,-1.987457275E-2,3.210879094E-2
3.365699703E0,6.516963243E-3,-2.642513067E-2,-7.840156555E-3,2.832360138E-2
3.370429547E0,1.744180918E-3,-7.228493690E-3,-1.489830017E-2,1.665090496E-2
3.375159443E0,-2.988517284E-3,-3.332836181E-2,-2.901935577E-2,4.429259471E-2
3.379889287E0,1.846259832E-2,-2.834602445E-2,2.084732056E-3,3.389263559E-2
3.384619182E0,1.662582159E-3,-1.147906482E-2,-2.679824829E-3,1.190439288E-2
3.389349078E0,-1.027759910E-2,-1.620540768E-2,-9.762287140E-2,9.949105136E-2
3.394078974E0,-1.496675611E-2,-2.086235583E-2,-7.069396973E-2,7.521222663E-2
3.398808818E0,1.778036356E-3,-2.782847732E-2,-1.549911499E-2,3.190310532E-2
3.403538714E0,-2.435109019E-2,-1.808827370E-2,-5.810451508E-2,6.554613575E-2
3.408268557E0,-1.702441275E-2,-2.267414331E-2,-1.251125336E-2,3.099159346E-2
3.412998453E0,-2.394673228E-2,-1.063120365E-2,-5.514431000E-2,6.105213676E-2
3.417728297E0,-1.184666157E-2,-2.483272552E-2,-9.029674530E-2,9.439549703E-2
3.422458193E0,-1.886875927E-2,-1.751931757E-2,-6.105518341E-2,6.626229687E-2
3.427188089E0,-2.105557919E-2,-7.921189070E-3,-3.680610657E-2,4.313666807E-2
3.431917932E0,-1.841925085E-2,-1.262022555E-2,-1.513481140E-2,2.697408777E-2
3.436647828E0,-2.535904944E-2,1.355384290E-2,-7.886886597E-3,2.981595254E-2
3.441377672E0,-4.894509912E-2,1.345183700E-2,-2.918720245E-2,5.855311634E-2
3.446107568E0,-3.669390082E-2,2.524987608E-2,-3.606510162E-2,5.731221645E-2
3.450837464E0,-3.169567883E-2,1.320812851E-2,-3.813648224E-2,5.131726798E-2
3.455567307E0,-1.238009334E-2,3.213140368E-2,-2.120018005E-2,4.043688227E-2
3.460297203E0,-2.883803844E-2,2.947200090E-2,-1.865196228E-2,4.525623709E-2
3.465027099E0,4.698008299E-3,2.920815349E-2,1.236534119E-2,3.206382970E-2
3.469756943E0,-2.617555857E-2,3.372399509E-2,2.650642395E-2,5.024995743E-2
3.474486839E0,-2.592793107E-2,4.060481489E-2,3.578186035E-2,6.001125004E-2
3.479216682E0,-2.339328825E-2,3.315570951E-2,1.411819458E-2,4.296359420E-2
3.483946578E0,-1.943796873E-3,3.769557178E-2,3.299808502E-2,5.013589625E-2
3.488676474E0,4.197359085E-4,2.320592850E-2,4.697036743E-2,5.239185731E-2
3.493406318E0,-4.331022501E-3,2.067781985E-2,3.708076477E-2,4.267684507E-2
3.498136214E0,1.950448751E-2,2.526475489E-2,6.288623810E-2,7.052242066E-2
3.502866109E0,1.222142577E-2,1.797344536E-2,7.423305511E-2,7.734956016E-2
3.507595953E0,2.399167418E-2,8.367247880E-3,6.886672974E-2,7.340461656E-2
3.512325849E0,3.569227457E-2,1.065492630E-2,6.354236603E-2,7.365526593E-2
3.517055693E0,4.017290473E-2,1.295200735E-2,6.063842773E-2,7.388258040E-2
3.521785589E0,4.699036479E-2,-1.091416180E-2,3.639030457E-2,6.042737440E-2
3.526515484E0,3.950640559E-2,-2.273841202E-2,6.457519531E-2,7.904269298E-2
3.531245328E0,6.057462096E-2,-1.226060092E-3,5.928897858E-2,8.477010622E-2
3.535975224E0,6.004300714E-2,8.264750242E-3,2.318382263E-2,6.489189806E-2
3.540705068E0,4.289647937E-2,-8.439913392E-3,-4.585838318E-2,6.335875147E-2
3.545434964E0,-9.748131037E-3,-3.610342741E-3,-3.122901917E-2,3.291370948E-2
3.550164859E0,3.541445732E-2,-2.731080353E-2,1.067323685E-1,1.157232140E-1
3.554894703E0,1.378214359E-2,-1.282584667E-2,2.435426712E-1,2.442692828E-1
3.559624599E0,6.489843130E-3,-8.042864501E-3,-2.913856506E-2,3.091701323E-2
3.564354495E0,4.034757614E-3,-8.020319045E-3,-3.839302063E-2,3.942878162E-2
3.569084339E0,1.830431819E-2,-2.699191868E-2,2.840137482E-2,4.324638517E-2
3.573814234E0,6.367534399E-3,-4.097246379E-2,4.953098297E-2,6.459571624E-2
3.578544078E0,3.998309374E-3,-4.533987492E-2,-2.210712433E-2,5.060055021E-2
3.583273974E0,1.580891013E-2,-4.022978246E-2,-3.141784668E-2,5.343629971E-2
3.588003870E0,1.570761204E-2,-5.415464193E-2,-2.667427063E-3,5.644970757E-2
3.592733714E0,2.513220906E-2,-4.427895695E-2,-1.047344208E-1,1.164540805E-1
3.597463609E0,3.529191017E-3,-4.872969538E-2,-8.961772919E-2,1.020704452E-1
3.602193453E0,-1.188695431E-3,-3.414861113E-2,2.508735657E-2,4.239004716E-2
3.606923349E0,-5.811214447E-3,-5.298633128E-2,-4.397678375E-2,6.910339373E-2
3.611653245E0,-2.235108614E-2,-6.686109304E-2,6.085014343E-2,9.312742223E-2
3.616383089E0,-3.165918589E-2,-2.366915345E-2,-1.153450012E-1,1.219303169E-1
3.621112984E0,-9.997308254E-3,-1.404673606E-2,-1.467132568E-2,2.263856806E-2
3.625842880E0,-2.412819862E-2,-2.824597061E-2,-4.541492462E-2,5.867299381E-2
3.630572724E0,-2.152255177E-2,-4.284344614E-3,5.467605591E-2,5.891559160E-2
3.635302620E0,-1.665021479E-2,5.121231079E-4,-3.124618530E-2,3.540926459E-2
3.640032464E0,-4.268267751E-2,-4.200264812E-3,2.599525452E-2,5.015183388E-2
3.644762359E0,-2.808076143E-2,1.246547699E-2,-3.594970703E-2,4.728952014E-2
3.649492255E0,-4.683832824E-2,2.424481511E-2,4.507160187E-2,6.937643222E-2
3.654222099E0,-4.169836640E-2,1.690357924E-2,-8.588218689E-2,9.695480791E-2
3.658951995E0,-2.947944403E-2,2.152120322E-2,2.167034149E-2,4.244765610E-2
3.663681839E0,-1.976493001E-2,2.372621745E-2,-5.685710907E-2,6.470175194E-2
3.668411734E0,-3.009229898E-3,2.596901357E-2,-1.602077484E-2,3.066121910E-2
3.673141630E0,-2.440769970E-2,4.009309411E-2,-7.523727417E-2,8.867829173E-2
3.677871474E0,-2.895188332E-2,1.845877618E-2,-2.475261688E-2,4.232765063E-2
3.682601370E0,-1.449348032E-2,2.303498983E-2,6.318092346E-3,2.793904113E-2
3.687331266E0,9.341031313E-3,3.712657839E-2,-4.833889008E-2,6.166267901E-2
3.692061109E0,-7.355421782E-3,4.869737476E-2,-6.455516815E-2,8.119671344E-2
3.696791005E0,-2.863198519E-2,4.352576658E-2,-3.552818298E-2,6.305977100E-2
3.701520849E0,-3.786046803E-2,5.741889030E-2,-2.810955048E-2,7.430000559E-2
3.706250745E0,-2.804732323E-2,5.460566655E-2,4.097366333E-2,7.380563831E-2
3.710980641E0,-8.762151003E-3,9.449438751E-2,2.708435059E-4,9.490014709E-2
3.715710484E0,-2.050161362E-2,4.617877305E-2,2.875709534E-2,5.813575297E-2
3.720440380E0,-1.080435514E-2,3.628061712E-2,2.670288086E-5,3.785522397E-2
3.725170224E0,-1.059883833E-2,6.445206702E-2,5.937671661E-2,8.827229912E-2
3.729900120E0,8.483707905E-3,6.386899948E-2,-8.594226837E-2,1.074118052E-1
3.734630016E0,3.665775061E-3,4.910283536E-2,1.448822021E-2,5.132674617E-2
3.739359859E0,2.737745643E-2,2.255976945E-2,1.674079895E-2,3.922655564E-2
3.744089755E0,1.765409112E-2,2.947746962E-2,-3.325557709E-2,4.781758626E-2
3.748819651E0,1.750802994E-2,1.496943831E-2,2.162742615E-2,3.159684727E-2
3.753549495E0,-8.723974228E-3,5.359068513E-3,3.094196320E-2,3.259190740E-2
3.758279391E0,-3.236293793E-2,-8.918762207E-3,-2.553939819E-3,3.366640283E-2
3.763009234E0,-3.443759680E-2,-2.304913849E-2,8.530998230E-2,9.484199459E-2
3.767739130E0,4.657179117E-2,-3.880627453E-3,8.934688568E-2,1.008308335E-1
3.772469026E0,6.526395679E-2,-3.710236400E-2,1.099672318E-1,1.331493955E-1
3.777198870E0,5.531111360E-2,-2.496538311E-2,-2.390384674E-2,6.522256918E-2
3.781928766E0,-1.643009484E-2,-1.765239984E-2,-4.507064819E-2,5.111671512E-2
3.786658609E0,-4.952989519E-2,-6.740762293E-2,-9.084701538E-3,8.413994265E-2
3.791388505E0,4.587832093E-2,-4.552453756E-2,1.239433289E-1,1.397828767E-1
3.796118401E0,8.588635921E-2,-3.086008877E-2,8.255004883E-2,1.230582071E-1
3.800848245E0,6.620788574E-2,-2.586987615E-2,3.514289856E-3,7.116940958E-2
3.805578141E0,3.241944313E-2,-2.086579800E-2,-8.198547363E-2,9.059812198E-2
3.810308037E0,-1.058465242E-2,-5.866809189E-2,-1.482486725E-2,6.143090885E-2
3.815037880E0,-3.401130438E-3,-7.475805283E-2,9.451007843E-2,1.205507738E-1
3.819767776E0,3.458645940E-2,-9.079932421E-2,-1.311397552E-2,9.804446341E-2
3.824497620E0,-3.658592701E-3,-7.581527531E-2,1.310920715E-2,7.702721976E-2
3.829227516E0,1.774120331E-2,-5.145724863E-2,-4.872798920E-2,7.305488117E-2
3.833957412E0,9.759366512E-4,-7.241177559E-2,-5.586624146E-3,7.263351889E-2
3.838687255E0,-2.506108582E-2,-7.182510197E-2,6.568145752E-2,1.005035181E-1
3.843417151E0,-5.811777711E-2,-4.269734025E-2,-8.918571472E-2,1.146945099E-1
3.848146995E0,-3.394791484E-2,-4.710734636E-2,2.789211273E-2,6.441686856E-2
3.852876891E0,-2.416680753E-2,-2.298931032E-2,-2.457141876E-2,4.142822221E-2
3.857606787E0,6.928592920E-3,-2.038265020E-2,-1.961803436E-2,2.912602103E-2
3.862336630E0,-1.684080064E-2,1.541115344E-2,-1.708126068E-2,2.851115015E-2
3.867066526E0,-1.669912040E-2,2.004273236E-2,-2.880859375E-2,3.886523918E-2
3.871796370E0,1.679331064E-2,1.270805299E-2,-4.994010925E-2,5.419893362E-2
3.876526266E0,4.840582609E-3,3.116525710E-3,2.644824982E-2,2.706758007E-2
3.881256162E0,-3.796155751E-2,1.500148326E-2,-8.773136139E-2,9.676216264E-2
3.885986005E0,-3.289529681E-2,7.738023996E-3,-5.138683319E-2,6.150271696E-2
3.890715901E0,-8.849918842E-3,3.139828146E-2,3.925704956E-2,5.104203250E-2
3.895445797E0,-4.195597768E-2,3.586816788E-2,-8.555412292E-3,5.585718046E-2
3.900175641E0,-7.484279573E-2,4.504986480E-2,-3.734588623E-3,8.743501326E-2
3.904905537E0,-5.525273085E-2,4.465845600E-2,1.045227051E-3,7.105163234E-2
3.909635380E0,-3.811472654E-2,5.608411506E-2,1.007490158E-1,1.214435034E-1
3.914365276E0,1.206132770E-2,8.171563596E-2,9.278678894E-2,1.242268449E-1
3.919095172E0,3.810596466E-2,1.190320179E-1,3.740596771E-2,1.304603091E-1
3.923825016E0,3.304058313E-2,7.771751285E-2,-4.837512970E-2,9.732340474E-2
3.928554912E0,-2.874404192E-3,5.803073198E-2,-1.809244156E-1,1.900249252E-1
3.933284807E0,2.086329460E-2,5.280907080E-2,-4.408931732E-2,7.188840603E-2
3.938014651E0,2.300742269E-2,-1.404000074E-2,1.388549805E-3,2.698872338E-2
3.942744547E0,3.463056684E-2,3.328546882E-4,1.087474823E-2,3.629940910E-2
3.947474391E0,2.247253060E-2,2.715960145E-3,4.164791107E-2,4.740189414E-2
3.952204287E0,8.623600006E-4,-1.388552785E-2,1.281356812E-2,1.891399155E-2
3.956934182E0,-1.581914723E-2,-1.850564778E-2,-2.290344238E-2,3.342562029E-2
3.961664026E0,2.702018619E-2,-3.973551095E-2,1.029968262E-3,4.806310567E-2
3.966393922E0,5.059540272E-2,-2.520321310E-2,4.137897491E-2,7.005223973E-2
3.971123766E0,3.595897555E-2,2.247378230E-2,-1.156597137E-1,1.231880197E-1
3.975853662E0,3.096988797E-2,3.278076649E-3,-1.241941452E-1,1.280393121E-1
3.980583557E0,-9.704321623E-3,-2.765838057E-2,9.793281555E-3,3.090417832E-2
3.985313401E0,1.886796951E-2,-8.422240615E-3,8.568477631E-2,8.814088326E-2
3.990043297E0,4.495620728E-3,-1.306017488E-2,1.300792694E-1,1.308105313E-1
3.994773193E0,-5.489392579E-2,8.399993181E-3,6.489276886E-2,8.541062243E-2
3.999503037E0,-2.837646008E-2,-1.062300801E-2,5.723190308E-2,6.475772167E-2
4.004232932E0,-3.526169062E-2,-3.423728794E-2,-3.108692169E-2,5.815475398E-2
4.008962776E0,1.017045975E-2,-5.290571600E-2,3.802108765E-2,6.593979180E-2
4.013692672E0,6.698116660E-2,-2.630903572E-2,-5.725860596E-2,9.196298166E-2
4.018422568E0,2.131581306E-2,-4.504202306E-2,3.581047058E-2,6.136397584E-2
4.023152412E0,2.122461796E-2,-3.759021312E-2,-5.470752716E-2,6.968803382E-2
4.027882307E0,-2.635747194E-3,-4.438843578E-2,7.472991943E-3,4.509019852E-2
4.032612151E0,-2.875715494E-2,-4.166266322E-2,-1.158142090E-2,5.193150082E-2
4.037342047E0,-4.276138544E-2,-3.186485171E-2,-2.098178864E-2,5.730741936E-2
4.042071943E0,-6.617364287E-2,3.967694938E-3,-4.692363739E-2,8.121897168E-2
4.046801787E0,-2.763479948E-2,1.103958488E-2,2.469158173E-2,3.866818828E-2
4.051531682E0,-1.075536013E-2,-1.755817235E-2,1.265735626E-1,1.282374124E-1
4.056261578E0,-5.973339081E-3,-3.184460104E-3,-1.213912964E-1,1.215798849E-1
4.060991422E0,1.779106259E-2,4.428057000E-2,-4.203319550E-2,6.359308383E-2
4.065721318E0,2.716916800E-2,5.093186349E-2,-5.830383301E-2,8.204605628E-2
4.070451162E0,5.548328161E-3,2.680613101E-2,1.103305817E-2,2.951408100E-2
4.075181057E0,1.019507647E-2,7.573567331E-3,5.130386353E-2,5.285248262E-2
4.079910953E0,2.192556858E-2,3.830145299E-2,-8.919811249E-2,9.951901894E-2
4.084640797E0,-2.573847771E-2,2.846969664E-2,4.449844360E-2,5.876312062E-2
4.089370693E0,-5.166676641E-2,1.634494960E-2,-2.234840393E-2,5.861794338E-2
4.094100537E0,-7.260191441E-2,6.667703390E-3,-8.626556396E-2,1.129479693E-1
4.098830432E0,2.294251323E-2,3.036683053E-2,2.604007721E-2,4.611495344E-2
4.103560328E0,2.990451455E-2,2.051731199E-2,9.202003479E-3,3.741546405E-2
4.108290172E0,-3.209939599E-2,-1.059050858E-2,-3.835773468E-2,5.112578513E-2
4.113020068E0,-3.660704195E-2,-3.452725708E-3,-1.781129837E-1,1.818687213E-1
4.117749964E0,1.581710577E-2,-1.765638590E-2,-9.384155273E-4,2.372360474E-2
4.122479807E0,5.364480615E-2,-8.777454495E-4,8.928680420E-2,1.041665449E-1
4.127209703E0,5.773067474E-3,-1.982343942E-2,-4.049301147E-3,2.104029226E-2
4.131939599E0,-5.125296116E-2,-1.973115653E-2,-9.423446655E-2,1.090702492E-1
4.136669443E0,-1.052120328E-2,1.726187766E-3,-7.979393005E-3,1.331713766E-2
4.141399339E0,1.808631420E-2,-1.729737222E-2,1.226644516E-1,1.251913796E-1
4.146129182E0,3.663569689E-3,-3.619160503E-2,-6.354141235E-2,7.321724593E-2
4.150859078E0,1.550483704E-2,-3.110227734E-2,2.483177185E-2,4.271262718E-2
4.155588974E0,8.311688900E-3,-1.183744520E-2,1.987457275E-2,2.458064123E-2
4.160318818E0,1.774099469E-2,-2.285905182E-3,-6.407737732E-3,1.900071993E-2
4.165048714E0,6.258976460E-2,-1.409667730E-2,2.451419830E-2,6.868144481E-2
4.169778557E0,5.260136724E-2,-2.580977976E-2,1.002817154E-1,1.161441820E-1
4.174508453E0,4.710167646E-3,-3.979866207E-2,2.584743500E-2,4.768866823E-2
4.179238349E0,-1.329779625E-4,-1.096550375E-2,3.987884521E-2,4.135918582E-2
4.183968193E0,4.489317536E-2,-1.320734620E-2,2.530479431E-2,5.319928386E-2
4.188698089E0,6.591588259E-2,-2.976229042E-2,1.295547485E-1,1.483749655E-1
4.193427932E0,6.013900042E-3,-3.659729660E-2,2.163887024E-2,4.293914085E-2
4.198157828E0,-1.777635515E-2,-2.678401768E-2,-2.365112305E-2,3.990937267E-2
4.202887724E0,1.798564196E-2,-2.417419851E-2,5.036354065E-3,3.054897793E-2
4.207617568E0,2.252814174E-2,-9.688429534E-3,4.773044586E-2,5.366170235E-2
4.212347464E0,2.468770742E-2,1.417472959E-2,3.783702850E-2,4.735025430E-2
4.217077359E0,-3.732964396E-2,-4.924103618E-3,-3.607368469E-2,5.214460511E-2
4.221807203E0,-3.864258528E-3,-1.903007925E-2,1.327943802E-1,1.342066460E-1
4.226537099E0,1.991105080E-2,-6.959810853E-3,4.147148132E-2,4.652711762E-2
4.231266943E0,-7.047115266E-2,1.213155687E-2,5.536937714E-2,9.043852030E-2
4.235996839E0,-4.622621834E-2,2.631629258E-2,-6.815910339E-3,5.362711209E-2
4.240726734E0,-1.263004541E-2,3.091395646E-2,5.734443665E-2,6.635943916E-2
4.245456578E0,-1.967468858E-2,2.591899037E-2,6.636428833E-2,7.391282837E-2
4.250186474E0,-5.449652672E-4,3.280792385E-2,-3.152751923E-2,4.550430005E-2
4.254916318E0,-2.668288350E-2,2.779870480E-2,-7.637310028E-2,8.554294072E-2
4.259646214E0,-3.838689625E-2,8.557111025E-3,-4.012298584E-2,5.618391180E-2
4.264376109E0,-1.441024244E-2,1.081321388E-2,3.855895996E-2,4.256024054E-2
4.269105953E0,-1.005828381E-4,3.919687867E-2,-1.161861420E-2,4.088272998E-2
4.273835849E0,-6.961822510E-5,4.594821110E-2,5.096435547E-3,4.623004008E-2
4.278565693E0,-3.327700496E-2,4.317516461E-2,-4.005527496E-2,6.764524337E-2
4.283295589E0,-4.492636025E-2,2.855297923E-2,-2.072715759E-2,5.712499917E-2
4.288025484E0,-1.365794241E-2,3.539299965E-2,2.455425262E-2,4.518976806E-2
4.292755328E0,-8.793860674E-3,3.268019855E-2,-1.363849640E-2,3.648747658E-2
4.297485224E0,-1.587013900E-2,3.705399483E-2,-3.251647949E-2,5.178977972E-2
4.302215120E0,-1.098883152E-2,2.242513001E-2,-7.972908020E-2,8.354859127E-2
4.306944964E0,-3.226387501E-2,3.226824105E-3,-4.820156097E-2,5.809268891E-2
4.311674859E0,-4.149028659E-2,4.829200357E-2,-5.967044830E-2,8.725894734E-2
4.316404703E0,-4.594871402E-2,2.175644040E-2,-8.291339874E-2,9.725872048E-2
4.321134599E0,-2.829492092E-3,-1.165046543E-2,6.735038757E-2,6.840916661E-2
4.325864495E0,-9.927034378E-3,-1.394426823E-2,2.642822266E-2,3.148713357E-2
4.330594339E0,9.121716022E-3,1.464495808E-2,-7.029533386E-3,1.863048147E-2
4.335324234E0,-3.377360106E-2,4.922688007E-3,-4.970455170E-2,6.029453910E-2
4.340054130E0,-2.877123654E-2,2.433091402E-3,-3.267192841E-2,4.360228081E-2
4.344783974E0,-9.508758783E-3,9.489305317E-3,2.695369720E-2,3.011586296E-2
4.349513870E0,-9.456902742E-3,1.416949928E-2,2.988815308E-3,1.729568548E-2
4.354243714E0,2.465248108E-3,1.883916557E-2,1.008605957E-2,2.151093223E-2
4.358973609E0,5.942499638E-2,9.195812047E-3,1.237678528E-2,6.139281690E-2
4.363703505E0,9.073734283E-3,-3.114496171E-2,-7.556819916E-2,8.223681668E-2
4.368433349E0,4.222720861E-3,-4.737886041E-2,-1.200456619E-1,1.291260963E-1
4.373163245E0,1.837682724E-2,-7.543364167E-2,-3.594779968E-2,8.555808774E-2
4.377893089E0,1.110199094E-2,-7.954309881E-2,8.068466187E-2,1.138436359E-1
4.382622984E0,4.662305117E-2,-4.088216275E-2,8.476066589E-2,1.050210960E-1
4.387352880E0,6.291210651E-2,-3.815484792E-2,-8.539199829E-3,7.407188063E-2
4.392082724E0,5.764147639E-2,-4.257196933E-2,-3.933143616E-2,8.174273205E-2
4.396812620E0,4.775157571E-2,-7.784540951E-2,-5.325031281E-2,1.057152618E-1
4.401542516E0,4.741188884E-2,-8.433589339E-2,-7.892608643E-2,1.248589494E-1
4.406272359E0,4.696211219E-2,-5.278363824E-2,-1.091308594E-1,1.300042188E-1
4.411002255E0,2.986830473E-2,-1.912094653E-2,-3.699493408E-2,5.124794017E-2
4.415732099E0,3.668650985E-2,-1.185515523E-2,1.128854752E-1,1.192877832E-1
4.420461995E0,-1.112866402E-2,-2.598802745E-2,1.333131790E-1,1.362777621E-1
4.425191891E0,-3.237317502E-2,2.759248018E-3,1.037120819E-1,1.086822517E-1
4.429921734E0,-3.679311275E-2,-1.864706725E-2,9.572410583E-2,1.042331555E-1
4.434651630E0,3.904104233E-3,-4.453788698E-2,5.456542969E-2,7.054255115E-2
4.439381474E0,-1.523448527E-2,-1.804016531E-2,-5.984592438E-2,6.433561821E-2
4.444111370E0,3.463703394E-2,-1.310136169E-2,-1.115751266E-1,1.175601067E-1
4.448841266E0,7.708439231E-2,1.553776860E-2,1.281070709E-2,7.967145039E-2
4.453571109E0,-2.564533055E-2,5.922637880E-3,1.270389557E-2,2.922583756E-2
4.458301005E0,-5.154626071E-2,-1.782877743E-2,3.871345520E-2,6.688507989E-2
4.463030901E0,-5.583553016E-2,-1.769771427E-2,7.637691498E-2,9.625096706E-2
4.467760745E0,-3.634759784E-2,-9.771734476E-4,2.350807190E-2,4.329817757E-2
4.472490641E0,-1.227372885E-2,3.733277321E-3,-9.927749634E-3,1.622165196E-2
4.477220484E0,-2.166706324E-2,2.742614597E-2,-3.358650208E-2,4.847378914E-2
4.481950380E0,-4.285284877E-2,-1.309677958E-3,3.316974640E-2,5.420621717E-2
4.486680276E0,-3.302627802E-2,2.480010688E-2,4.951477051E-2,6.447862312E-2
4.491410120E0,-1.141116023E-2,5.778552964E-2,6.809520721E-2,9.003521122E-2
4.496140016E0,1.949161291E-2,1.023660600E-1,2.954196930E-2,1.083118699E-1
4.500869912E0,-2.334721386E-2,6.113574654E-2,-1.106643677E-2,6.637121306E-2
4.505599755E0,-5.873566866E-2,3.924068809E-2,-2.759361267E-2,7.583612486E-2
4.510329651E0,-3.447520733E-2,4.599015787E-2,-1.549339294E-2,5.952881459E-2
4.515059495E0,-6.977090240E-2,3.846622258E-2,2.262115479E-2,8.282116725E-2
4.519789391E0,-4.078438878E-2,4.768096656E-2,-2.979469299E-2,6.945908631E-2
4.524519287E0,4.608422518E-3,6.385669112E-2,-2.004909515E-2,6.708860392E-2
4.529249130E0,1.887288690E-2,8.227176964E-2,-2.463245392E-2,8.792944743E-2
4.533979026E0,-3.348642588E-2,4.589877278E-2,-5.434989929E-3,5.707518879E-2
4.538708922E0,-2.371728420E-3,3.840257227E-2,-5.049800873E-2,6.348567979E-2
4.543438766E0,6.409677863E-2,1.672620326E-2,7.337856293E-2,9.885634225E-2
4.548168662E0,7.308876514E-2,3.318836540E-2,7.039260864E-2,1.067640133E-1
4.552898505E0,-8.211195469E-3,4.479501396E-2,-7.501792908E-2,8.775936810E-2
4.557628401E0,-7.230091095E-2,2.066199481E-2,-8.151531219E-2,1.109012438E-1
4.562358297E0,-2.184052765E-2,3.703366220E-2,1.138448715E-1,1.216928739E-1
4.567088141E0,4.247301817E-2,5.807489157E-2,8.440399170E-2,1.109084493E-1
4.571818037E0,-1.251314580E-2,-6.555527449E-3,-1.768112183E-3,1.423657187E-2
4.576547880E0,-2.939045429E-3,-4.142746329E-3,-1.726903915E-1,1.727650765E-1
4.581277776E0,3.507316113E-2,-1.834138483E-2,5.666637421E-2,6.912026472E-2
4.586007672E0,7.517093420E-2,-2.775958180E-2,5.144500732E-2,9.522527243E-2
4.590737516E0,6.030100584E-2,-1.561731845E-2,-2.020835876E-2,6.548656125E-2
4.595467412E0,-6.704747677E-3,-3.446864337E-2,-1.791076660E-1,1.825173883E-1
4.600197307E0,3.125375509E-2,-2.942064404E-2,9.943962097E-3,4.405966279E-2
4.604927151E0,1.677823067E-2,-6.480442733E-2,1.451873779E-1,1.598765071E-1
4.609657047E0,-1.179274917E-2,-6.430885941E-2,5.375766754E-2,8.464387249E-2
4.614386891E0,2.523273230E-3,-3.295426071E-2,-1.722335815E-1,1.753760440E-1
4.619116787E0,-7.049620152E-3,-8.246733993E-2,6.424331665E-2,1.047748206E-1
4.623846682E0,-3.304761648E-2,-9.366610646E-2,1.859855652E-2,1.010514263E-1
4.628576526E0,5.244225264E-3,-6.916006655E-2,-1.004791260E-2,7.008264586E-2
4.633306422E0,9.921669960E-3,-1.636923105E-2,-1.334180832E-1,1.347841837E-1
4.638036266E0,3.592750430E-2,-2.091246098E-2,7.424640656E-2,8.509198244E-2
4.642766162E0,1.431936026E-2,-5.158963799E-2,-7.094383240E-3,5.400800959E-2
4.647496057E0,-4.037529230E-2,-4.642741382E-2,-5.451869965E-2,8.220679773E-2
4.652225901E0,-1.386465132E-2,-4.127977043E-2,-4.456901550E-2,6.231087502E-2
4.656955797E0,1.717311144E-2,-4.570079595E-2,5.551433563E-2,7.392780240E-2
4.661685693E0,-4.193365574E-3,-6.435761601E-2,4.080104828E-2,7.631652897E-2
4.666415537E0,1.492118835E-2,-5.431374907E-2,4.847526550E-3,5.653427026E-2
4.671145432E0,-1.360620558E-2,-4.200713336E-2,-5.454826355E-2,7.018006227E-2
4.675875276E0,-1.821163297E-2,3.405764699E-3,-1.848316193E-2,2.617040472E-2
4.680605172E0,-3.785818815E-3,8.107431233E-3,-3.494930267E-2,3.607653840E-2
4.685335068E0,8.089303970E-3,2.701630443E-2,-2.278614044E-2,3.625638896E-2
4.690064912E0,5.550587177E-2,2.439952642E-2,1.064109802E-2,6.155868467E-2
4.694794807E0,3.379058838E-2,4.364624619E-4,-8.443832397E-3,3.483235088E-2
4.699524651E0,-5.902454257E-2,9.884208441E-3,-1.033411026E-1,1.194193355E-1
4.704254547E0,-4.425831139E-2,2.643184364E-2,9.104728699E-3,5.234822413E-2
4.708984443E0,-2.252082527E-2,7.287040353E-3,4.701709747E-2,5.263930074E-2
4.713714287E0,-3.338336945E-3,1.436123252E-2,1.012306213E-1,1.022987204E-1
4.718444182E0,-8.029371500E-3,9.729076922E-2,-1.594734192E-2,9.891553112E-2
4.723174078E0,-7.904797792E-3,6.328062713E-2,-2.531147003E-2,6.861190941E-2
4.727903922E0,-2.920521796E-2,3.192879260E-2,7.698822021E-2,8.831522295E-2
4.732633818E0,3.033566475E-2,4.591783509E-2,2.886581421E-2,6.214447172E-2
4.737363662E0,1.346480846E-2,4.786337167E-2,-3.785133362E-2,6.248941407E-2
4.742093557E0,3.231930733E-2,6.641398370E-2,-4.703330994E-2,8.756418846E-2
4.746823453E0,4.392170906E-2,5.162661523E-2,-5.138874054E-2,8.506013509E-2
4.751553297E0,-8.616983891E-3,4.877778888E-2,-2.009868622E-2,5.345542336E-2
4.756283193E0,-5.837219954E-2,6.734849513E-2,5.603981018E-2,1.052786484E-1
4.761013089E0,-2.933745086E-2,1.691415161E-2,5.082321167E-2,6.107187071E-2
4.765742932E0,-1.012659073E-2,1.438305527E-2,1.311216354E-1,1.322962713E-1
4.770472828E0,4.260987043E-3,3.793098778E-2,4.930686951E-2,6.235449643E-2
4.775202672E0,-5.240947008E-3,3.754195571E-2,-3.182697296E-2,4.949567832E-2
4.779932568E0,-4.312504828E-2,5.852350593E-2,-3.074645996E-3,7.276141823E-2
4.784662464E0,-3.561396897E-2,4.614683986E-2,7.054805756E-2,9.151455643E-2
4.789392307E0,4.987746477E-3,5.761627853E-2,5.858421326E-3,5.812774094E-2
4.794122203E0,3.818532825E-2,5.952126905E-2,4.617023468E-2,8.445467029E-2
4.798852047E0,6.398296356E-2,1.632780582E-2,9.089469910E-2,1.123488460E-1
4.803581943E0,2.792432904E-2,-5.135394633E-3,2.291679382E-3,2.848494734E-2
4.808311839E0,-1.498471200E-2,-1.686618477E-2,-2.621841431E-2,3.458923288E-2
4.813041682E0,-2.918909490E-2,-2.143448591E-2,-2.837085724E-2,4.600376058E-2
4.817771578E0,-2.902989089E-2,-3.789165616E-2,-5.662155151E-2,7.405749299E-2
4.822501474E0,5.187776685E-2,-3.278664500E-2,1.076669693E-1,1.239291857E-1
4.827231318E0,7.044026256E-2,-1.356472075E-2,4.741573334E-2,8.598885978E-2
4.831961214E0,6.527751684E-2,-3.486348689E-2,-7.169151306E-2,1.030353821E-1
4.836691057E0,4.105120897E-2,-7.022814453E-2,-6.397342682E-2,1.034881316E-1
4.841420953E0,-4.341065884E-3,-1.005228236E-1,-1.833343506E-2,1.022731527E-1
4.846150849E0,-3.033320606E-2,-8.313828707E-2,-1.818370819E-2,9.034780246E-2
4.850880693E0,-1.645654440E-3,-1.123628020E-2,2.707767487E-2,2.936260628E-2
4.855610589E0,5.407035351E-3,-2.065446973E-2,6.721496582E-2,7.052442684E-2
4.860340484E0,-1.837787032E-2,-5.373642594E-2,1.212606430E-1,1.339010572E-1
4.865070328E0,-2.997995913E-2,-5.805292726E-2,2.290725708E-2,6.923642639E-2
4.869800224E0,1.074594259E-2,-2.909538150E-2,-3.664112091E-2,4.800612720E-2
4.874530068E0,5.883246660E-3,-2.649223804E-2,-6.007671356E-2,6.592164121E-2
4.879259964E0,2.477407455E-2,-5.955146998E-2,-6.907081604E-2,9.450349187E-2
4.883989859E0,1.742061973E-2,-5.194547027E-2,-2.575969696E-2,6.054231463E-2
4.888719703E0,6.321966648E-4,-2.772612870E-2,-1.110134125E-1,1.144251530E-1
4.893449599E0,6.305575371E-4,3.383852541E-3,-6.497955322E-2,6.507065696E-2
4.898179495E0,-1.118516922E-2,-3.752529621E-3,2.103042603E-2,2.411365397E-2
4.902909339E0,-3.960660100E-2,-5.359182507E-2,1.373291016E-2,6.803939578E-2
4.907639234E0,-3.455311060E-2,-3.656813502E-2,-3.623867035E-2,6.200312234E-2
4.912369078E0,-3.663568199E-2,-3.158550709E-2,-8.579444885E-2,9.849114126E-2
4.917098974E0,-3.872877359E-2,-2.424027026E-2,-3.284931183E-2,5.627242570E-2
4.921828870E0,-1.225803792E-2,9.187102318E-3,-3.257656097E-2,3.599853702E-2
4.926558714E0,1.399245858E-2,6.724439561E-3,9.326934814E-4,1.555239215E-2
4.931288609E0,-4.507899284E-4,2.567660064E-2,3.891277313E-2,4.662290150E-2
4.936018453E0,-5.248636007E-3,2.307502925E-2,-1.770019531E-3,2.373053148E-2
4.940748349E0,-3.131690621E-2,3.476848453E-2,-1.362609863E-2,4.873670788E-2
4.945478245E0,-1.921004057E-2,5.114126951E-2,-1.132259369E-1,1.257162197E-1
4.950208089E0,-1.429770887E-2,3.891703486E-2,-4.105663300E-2,5.834901194E-2
4.954937984E0,-2.303868532E-3,1.964376122E-2,1.151657104E-2,2.288703942E-2
4.959667880E0,-7.001191378E-3,3.373921663E-2,-1.232051849E-2,3.659435196E-2
4.964397724E0,1.920488477E-2,6.668268144E-2,-1.934146881E-2,7.203818445E-2
4.969127620E0,4.513591528E-2,5.667462200E-2,1.168346405E-2,7.338778481E-2
4.973857464E0,2.817314863E-2,6.096638739E-2,-3.589725494E-2,7.615273868E-2
4.978587359E0,1.847419143E-2,2.014204115E-2,-1.897907257E-2,3.327465651E-2
4.983317255E0,1.351863146E-2,3.660822660E-2,-7.579803467E-2,8.525407738E-2
4.988047099E0,2.290621400E-2,6.240532920E-2,-2.768325806E-2,7.201029460E-2
4.992776995E0,-3.900888562E-2,3.335358948E-2,-6.087303162E-3,5.168375323E-2
4.997506891E0,-4.111066461E-2,-4.894211888E-3,1.008024216E-1,1.089732456E-1
5.002236734E0,-1.230283082E-2,9.407222271E-3,1.047115326E-1,1.058506520E-1
5.006966630E0,-1.216821373E-2,1.643782109E-2,9.434223175E-2,9.653353862E-2
5.011696474E0,-1.209194958E-2,1.150988042E-2,-2.040290833E-2,2.636230757E-2
5.016426370E0,-1.198725402E-2,-2.758242190E-3,-1.310920715E-2,1.797646993E-2
5.021156266E0,2.847647667E-2,4.951025546E-2,3.210830688E-2,6.552189321E-2
5.025886109E0,8.519357443E-2,5.151454732E-2,3.896427155E-2,1.069107486E-1
5.030616005E0,3.697612882E-2,1.074051112E-2,1.964855194E-2,4.322798023E-2
5.035345849E0,1.290136576E-2,-1.205489039E-3,-1.375293732E-2,1.889554781E-2
5.040075745E0,-1.577766240E-2,-2.486497164E-2,3.147315979E-2,4.310175440E-2
5.044805641E0,-1.572822034E-2,-2.939181775E-2,-5.900478363E-2,6.777035013E-2
5.049535484E0,1.046457887E-2,-1.251433790E-2,4.120254517E-2,4.431439712E-2
5.054265380E0,-6.323724985E-3,6.597384810E-3,2.899169922E-2,3.039792111E-2
5.058995276E0,-4.428227246E-2,-3.140048683E-2,4.062080383E-2,6.780088444E-2
5.063725120E0,-3.606319427E-3,-3.587286174E-2,5.690383911E-2,6.736404571E-2
5.068455016E0,-1.078107953E-2,-3.075516969E-2,8.254909515E-2,8.874945211E-2
5.073184859E0,3.557562828E-3,-4.467106611E-2,1.554603577E-1,1.617902445E-1
5.077914755E0,1.543077826E-2,-2.766475081E-2,-2.530097961E-3,3.177811749E-2
5.082644651E0,2.237188816E-2,-6.021872163E-3,-5.236434937E-2,5.726071436E-2
5.087374495E0,1.501002908E-2,-3.610253334E-3,-1.421442032E-1,1.429801014E-1
5.092104391E0,2.678805590E-2,-2.973697335E-2,-3.887176514E-2,5.579338354E-2
5.096834234E0,7.604032755E-3,-5.799164623E-2,-2.905178070E-2,6.530588265E-2
5.101564130E0,1.232135296E-2,-5.280125886E-2,-3.355979919E-2,6.376557691E-2
5.106294026E0,-4.338860512E-3,-6.424319744E-2,-5.227375031E-2,8.293707916E-2
5.111023870E0,2.823978662E-3,-6.849654019E-2,1.938533783E-2,7.124283961E-2
5.115753766E0,1.230067015E-2,-6.796766073E-2,1.447296143E-2,7.057177908E-2
5.120483662E0,-4.388451576E-3,-1.521119475E-2,-4.640579224E-3,1.649769465E-2
5.125213505E0,-1.384456456E-2,1.521892846E-3,1.459121704E-4,1.392872629E-2
5.129943401E0,2.836823463E-3,-3.651833534E-2,-2.122116089E-2,4.233171451E-2
5.134673245E0,7.566332817E-3,-5.052626878E-2,-3.766441345E-2,6.347252374E-2
5.139403141E0,5.076766014E-3,-6.913807988E-2,-1.360797882E-2,7.064718487E-2
5.144133037E0,1.931208372E-2,-4.963761568E-2,-4.436016083E-2,6.931575100E-2
5.148862880E0,-1.880282164E-2,-3.739441931E-2,-4.161739349E-2,5.902453844E-2
5.153592776E0,-2.104485035E-2,-1.575661451E-2,-2.227783203E-2,3.445951867E-2
5.158322672E0,1.714897156E-2,2.475021034E-2,4.913139343E-2,5.762424801E-2
5.163052516E0,-3.050173819E-2,2.693311125E-2,-5.882263184E-3,4.111386061E-2
5.167782412E0,-8.876293898E-3,3.624948859E-2,-2.719974518E-2,4.618051704E-2
5.172512255E0,3.100514412E-3,2.409167588E-2,2.763175964E-2,3.679043595E-2
5.177242151E0,2.679160237E-2,-2.208955586E-3,3.689861298E-2,4.565278833E-2
5.181972047E0,3.847146034E-2,2.630427480E-3,-1.395225525E-3,3.858651402E-2
5.186701891E0,3.343468904E-2,-1.156444848E-2,-3.757476807E-3,3.557714901E-2
5.191431787E0,2.369156480E-2,1.463409513E-2,-1.322364807E-2,3.082712850E-2
5.196161682E0,5.436137319E-2,1.687207818E-2,-3.448104858E-2,6.654899419E-2
5.200891526E0,-3.010332584E-3,1.197047532E-2,-8.080482483E-3,1.475291763E-2
5.205621422E0,-3.376016021E-2,2.360664308E-3,1.572513580E-2,3.731757025E-2
5.210351266E0,-2.554357052E-3,-7.507205009E-5,1.347541809E-3,2.888986793E-3
5.215081162E0,-9.679764509E-3,2.362661809E-2,-3.411293030E-3,2.575950006E-2
5.219811057E0,1.411783695E-2,1.157474518E-2,-8.131027222E-3,1.998503565E-2
5.224540901E0,2.824962139E-2,-1.459161192E-2,2.042770386E-2,3.779215966E-2
5.229270797E0,1.380169392E-2,-1.208010316E-2,5.349445343E-2,5.655150038E-2
5.234000693E0,-1.479949057E-2,1.652534306E-2,-1.556396484E-3,2.223812615E-2
5.238730537E0,-2.829641104E-3,3.539732099E-2,1.507568359E-2,3.857788794E-2
5.243460432E0,-1.944932342E-2,4.226468503E-3,1.732444763E-2,2.638703665E-2
5.248190276E0,4.458487034E-3,-5.405247211E-4,3.379917145E-2,3.409625000E-2
5.252920172E0,4.397094250E-3,4.143387079E-3,-4.482841492E-2,4.523371396E-2
5.257650068E0,-2.415265143E-2,-1.729660481E-2,-1.833915710E-2,3.491200069E-2
5.262379912E0,-3.819264472E-2,-1.482025534E-2,8.058547974E-4,4.097520568E-2
5.267109807E0,-1.641739905E-2,4.284478724E-3,2.453804016E-2,2.983292082E-2
5.271839703E0,-2.803295851E-2,-5.259007215E-3,4.332447052E-2,5.187016161E-2
5.276569547E0,-2.782359719E-2,2.331957221E-2,4.058837891E-2,5.445522483E-2
5.281299443E0,-6.219536066E-3,3.026570380E-2,4.974842072E-2,5.856279381E-2
5.286029287E0,9.880363941E-4,3.243411332E-2,4.933357239E-2,5.904870267E-2
5.290759182E0,-3.462788463E-2,-3.402642906E-3,8.561134338E-3,3.583240703E-2
5.295489078E0,-3.430631757E-2,-2.235022187E-2,3.935241699E-2,5.678968714E-2
5.300218922E0,-2.451926470E-2,-1.505272835E-2,1.290893555E-2,3.153441912E-2
5.304948818E0,-2.677059174E-2,1.735985279E-3,3.891944885E-2,4.726945870E-2
5.309678662E0,-3.832888603E-2,4.111431539E-3,-1.766204834E-3,3.858920643E-2
5.314408557E0,-5.222196877E-2,-5.460597575E-3,-5.635643005E-2,7.702596547E-2
5.319138453E0,-1.851633191E-2,-1.257871836E-2,-2.264976501E-2,3.184478856E-2
5.323868297E0,1.010286808E-2,2.552749217E-2,-1.059055328E-2,2.942584950E-2
5.328598193E0,-1.819640398E-3,2.530205250E-2,-3.899192810E-2,4.651747423E-2
5.333328089E0,-6.634563208E-3,-3.412023187E-3,-2.679443359E-2,2.781368373E-2
5.338057932E0,5.237847567E-3,8.529886603E-3,4.940414429E-2,5.040797045E-2
5.342787828E0,1.706829667E-2,2.034381777E-2,2.050209045E-2,3.354896997E-2
5.347517672E0,9.778439999E-3,5.336968601E-2,2.270507812E-2,5.881719006E-2
5.352247568E0,-3.068810701E-2,4.106996208E-2,-3.446292877E-2,6.177536044E-2
5.356977464E0,-2.565169334E-2,2.172182500E-2,-3.180122375E-2,4.627272291E-2
5.361707307E0,3.056108952E-3,2.152884752E-2,-1.966667175E-2,2.931909028E-2
5.366437203E0,2.677544951E-2,1.186711341E-2,-3.849601746E-2,4.837040870E-2
5.371167099E0,4.552063346E-2,4.660785198E-3,-8.090972900E-2,9.295286567E-2
5.375896943E0,3.796616197E-2,2.597732097E-2,-8.260822296E-2,9.455352537E-2
5.380626839E0,1.984536648E-3,3.761887550E-2,-4.393196106E-2,5.787171487E-2
5.385356734E0,1.618862152E-2,3.017098457E-2,-4.119110107E-2,5.356366851E-2
5.390086578E0,1.128116250E-2,3.703005612E-2,-2.897548676E-2,4.835357811E-2
5.394816474E0,-1.257856190E-2,2.009048313E-2,-2.441406250E-4,2.370458472E-2
5.399546318E0,1.746356487E-3,1.516130567E-2,-9.737968445E-3,1.810367311E-2
5.404276214E0,6.483435631E-3,2.451735735E-2,4.589080811E-3,2.577198890E-2
5.409006109E0,1.827561855E-2,4.332198575E-2,-9.694099426E-3,4.800800190E-2
5.413735953E0,-3.211885691E-3,2.158018202E-2,1.650142670E-2,2.735539341E-2
5.418465849E0,-5.583524704E-3,2.848237008E-2,1.399040222E-2,3.222037411E-2
5.423195745E0,-3.101974726E-3,1.158483326E-2,4.375457764E-3,1.276617561E-2
5.427925589E0,1.826664805E-2,2.572047710E-2,9.087562561E-3,3.282982130E-2
5.432655484E0,3.951352835E-2,1.602379978E-2,4.262924194E-3,4.285152978E-2
5.437385328E0,3.604143858E-3,8.754372597E-3,-3.376102448E-2,3.506330940E-2
5.442115224E0,-3.515034914E-3,8.670970798E-3,-1.923561096E-2,2.139041688E-2
5.446845120E0,-5.912601948E-3,-2.227716148E-2,1.178836823E-2,2.588815194E-2
5.451574964E0,-1.292406023E-2,-4.349777848E-2,3.780460358E-2,5.906162982E-2
5.456304859E0,-5.717843771E-3,-7.635609806E-2,2.087211609E-2,7.936367354E-2
5.461034703E0,-5.693882704E-3,-4.724045098E-2,1.120090485E-2,4.888292931E-2
5.465764599E0,-8.936226368E-4,-5.398043245E-2,2.297973633E-2,5.867498556E-2
5.470494495E0,6.268382072E-3,-3.695349395E-2,6.168365479E-3,3.798555070E-2
5.475224339E0,8.594214916E-3,-4.850050807E-2,3.223228455E-2,5.886492997E-2
5.479954234E0,-9.697675705E-4,-4.101434350E-2,3.908538818E-2,5.666378377E-2
5.484684078E0,-3.331273794E-3,-5.249755085E-2,4.113388062E-2,6.677639077E-2
5.489413974E0,2.519080043E-2,-5.436001718E-2,3.841781616E-2,7.117244195E-2
5.494143870E0,3.645926714E-3,-5.626541376E-2,9.606361389E-3,5.719590673E-2
5.498873714E0,6.022423506E-3,-5.815416574E-2,4.988670349E-2,7.685609776E-2
5.503603609E0,-2.483022213E-2,-7.661699504E-2,3.759860992E-2,8.888396553E-2
5.508333505E0,-8.781850338E-4,-4.509957135E-2,3.965950012E-2,6.006345390E-2
5.513063349E0,-1.742872596E-2,-4.473569989E-2,4.645061493E-2,6.680346518E-2
5.517793245E0,4.116535187E-3,-3.012999892E-2,5.318450928E-2,6.126462865E-2
5.522523141E0,2.067705989E-2,-1.799165457E-2,3.612327576E-2,4.534458613E-2
5.527252984E0,2.520000935E-2,-1.539485902E-2,2.395439148E-2,3.802440041E-2
5.531982880E0,-3.523975611E-3,-9.766817093E-4,3.325176239E-2,3.345223480E-2
5.536712724E0,2.022168040E-2,-1.045087725E-2,1.873111725E-2,2.947866936E-2
5.541442620E0,1.050385833E-2,-3.224819899E-3,-5.164146423E-3,1.214079534E-2
5.546172516E0,5.671679974E-3,1.821287721E-2,-3.123664856E-2,3.660061561E-2
5.550902359E0,-1.576747000E-2,3.707004339E-2,-4.859924316E-3,4.057610246E-2
5.555632255E0,-1.328651607E-2,3.674841672E-2,-2.381134033E-2,4.575978113E-2
5.560362151E0,-3.703743219E-3,3.173813224E-2,2.503395081E-3,3.205142335E-2
5.565091995E0,-2.257703245E-2,5.520165712E-2,-2.126216888E-2,6.331686322E-2
5.569821891E0,-9.888410568E-4,3.339082003E-2,-4.957580566E-2,5.978030759E-2
5.574551734E0,1.323941350E-2,3.075344115E-2,-2.779388428E-2,4.351501139E-2
5.579281630E0,1.321843266E-2,7.793893665E-2,-2.519130707E-2,8.296870952E-2
5.584011526E0,-1.057261229E-2,5.353450030E-2,-1.073837280E-2,5.561506544E-2
5.588741370E0,-5.732297897E-3,4.832737893E-2,-2.964115143E-2,5.698238896E-2
5.593471266E0,-9.319782257E-4,4.794116318E-2,-3.651714325E-2,6.027209522E-2
5.598201109E0,1.510500908E-3,6.411875784E-2,-3.858852386E-2,7.485032328E-2
5.602931005E0,-5.620598793E-3,5.404667184E-2,-3.826808929E-2,6.646112041E-2
5.607660901E0,1.342302561E-2,4.643190652E-2,-1.658344269E-2,5.109902280E-2
5.612390745E0,1.325845718E-2,4.611841589E-2,-2.356529236E-2,5.346043374E-2
5.617120641E0,1.074928045E-2,5.284382775E-2,-3.048896790E-2,6.194831979E-2
5.621850537E0,1.195520163E-3,3.817433119E-2,-2.548789978E-2,4.591668395E-2
5.626580380E0,2.724814415E-2,2.359863371E-2,-4.426765442E-2,5.708749513E-2
5.631310276E0,1.037749648E-2,1.866944134E-2,-1.778221130E-2,2.779293997E-2
5.636040120E0,2.691426873E-2,1.378206909E-2,-1.014709473E-3,3.025480003E-2
5.640770016E0,2.903962135E-2,6.503611803E-3,2.748394012E-2,4.050880817E-2
5.645499912E0,5.003392696E-3,3.258155286E-2,1.538467407E-2,3.637691193E-2
5.650229755E0,-4.530638456E-3,-1.040810347E-2,-1.085853577E-2,1.570869509E-2
5.654959651E0,1.210156083E-2,-1.267976314E-2,-1.788902283E-2,2.504478599E-2
5.659689547E0,-9.419322014E-3,-1.021189243E-2,-1.536560059E-2,2.071492350E-2
5.664419391E0,2.534121275E-3,-1.963534206E-2,3.936767578E-2,4.406565925E-2
5.669149287E0,1.715719700E-4,-1.951213181E-2,3.427505493E-3,1.981162585E-2
5.673879130E0,1.439076662E-2,-2.885807306E-2,3.399848938E-3,3.242593896E-2
5.678609026E0,2.611759305E-2,-2.147787064E-2,-2.986526489E-2,4.511498245E-2
5.683338922E0,-2.642542124E-3,-2.365652472E-2,-3.673744202E-2,4.377503668E-2
5.688068766E0,-1.211315393E-2,-2.819193155E-2,3.716754913E-2,4.819689006E-2
5.692798662E0,-2.393628657E-2,-6.120851636E-2,-2.249526978E-2,6.946557026E-2
5.697528557E0,-2.144473791E-2,-4.415055364E-2,-1.043510437E-2,5.018007149E-2
5.702258401E0,-2.134689689E-2,-2.002386749E-2,-2.933788300E-2,4.144100209E-2
5.706988297E0,-3.066135943E-2,-3.408539295E-2,4.925251007E-2,6.728850365E-2
5.711718141E0,-4.461772740E-2,-6.233076751E-2,3.697013855E-2,8.510380321E-2
5.716448037E0,-3.711982071E-2,-6.894724816E-2,2.479171753E-2,8.213545749E-2
5.721177932E0,-5.999863148E-3,-3.268854320E-2,8.459091187E-4,3.324537226E-2
5.725907776E0,-1.197636127E-3,-1.812700927E-2,-6.283760071E-3,1.922260227E-2
5.730637672E0,-1.062306762E-2,-1.798789948E-2,-5.846500397E-2,6.208518972E-2
5.735367568E0,-1.527859271E-2,-3.927423060E-2,-1.286983490E-2,4.406283280E-2
5.740097412E0,-1.754966378E-2,-5.080115795E-2,-1.988410950E-2,5.730729586E-2
5.744827307E0,-1.499597728E-2,-2.418726683E-2,-7.848739624E-3,2.952127919E-2
5.749557151E0,-1.724091172E-2,-1.681828499E-2,-5.764007568E-2,6.246984930E-2
5.754287047E0,-9.942084551E-3,2.274625003E-3,-2.866935730E-2,3.042944318E-2
5.759016943E0,-1.225824654E-2,2.270683646E-3,3.329753876E-2,3.555484074E-2
5.763746787E0,-7.376015186E-3,-7.259033620E-3,2.827167511E-2,3.010625820E-2
5.768476682E0,4.616737366E-3,-9.586133063E-3,1.853656769E-2,2.137317367E-2
5.773206578E0,2.150505781E-3,-2.426467836E-3,1.126098633E-2,1.171845700E-2
5.777936422E0,1.872643828E-2,4.701986909E-3,-5.450248718E-3,2.006223773E-2
5.782666318E0,3.522181511E-2,1.886652410E-2,6.464958191E-3,4.047613711E-2
5.787396214E0,3.736361861E-2,9.200766683E-3,-4.582214355E-2,5.983613409E-2
5.792126057E0,1.806271076E-2,6.736487150E-3,-3.831768036E-2,4.289389709E-2
5.796855953E0,2.272069454E-2,1.853688806E-2,-1.188373566E-2,3.163968003E-2
5.801585797E0,1.196146011E-3,2.551987022E-2,4.756832123E-2,5.399481203E-2
5.806315693E0,-1.540075243E-2,6.329029799E-3,8.040809631E-2,8.211395586E-2
5.811045537E0,-1.280926168E-2,3.947243840E-2,5.836772919E-2,7.161663486E-2
5.815775432E0,-7.921487093E-3,4.859966785E-2,5.075931549E-2,7.071906236E-2
5.820505328E0,4.437968135E-2,5.058458447E-2,5.033588409E-2,8.403604899E-2
5.825235172E0,3.686258197E-2,5.255219340E-2,3.092384338E-2,7.125213730E-2
5.829965068E0,1.516380906E-2,2.838929743E-2,4.016304016E-2,5.146807854E-2
5.834694964E0,1.029336452E-2,3.051490337E-2,3.508090973E-2,4.762124429E-2
5.839424807E0,3.403842449E-2,3.493926674E-2,2.528953552E-2,5.494476599E-2
5.844154703E0,-1.838773489E-2,8.432857692E-3,-3.902721405E-2,4.395844992E-2
5.848884599E0,1.975551248E-2,3.446474671E-2,9.899902344E-2,1.066719536E-1
5.853614443E0,1.722064614E-2,2.704239637E-2,4.119491577E-2,5.220021973E-2
5.858344339E0,-1.912117004E-3,6.713636220E-2,-3.274726868E-2,7.472168980E-2
5.863074182E0,7.604628801E-3,4.516914487E-2,-3.986358643E-3,4.597796301E-2
5.867804078E0,1.704150438E-2,1.391534507E-2,8.863925934E-2,9.132890011E-2
5.872533974E0,5.060851574E-3,6.691955030E-3,2.379703522E-2,2.523278355E-2
5.877263818E0,1.214501262E-2,1.134330779E-2,3.546714783E-2,3.916746785E-2
5.881993714E0,3.106909990E-2,2.548020333E-2,9.055137634E-3,4.118889715E-2
5.886723557E0,2.849665284E-2,3.240531683E-2,3.984260559E-2,5.873326998E-2
5.891453453E0,1.164433360E-2,8.410319686E-3,-1.746940613E-2,2.261645712E-2
5.896183349E0,-2.643510699E-2,1.310428977E-2,-1.732349396E-2,3.421462750E-2
5.900913193E0,-1.436920464E-2,1.138605177E-3,-5.279064178E-2,5.472314249E-2
5.905643089E0,-1.181441545E-2,-5.977556109E-3,-2.148914337E-2,2.524073835E-2
5.910372984E0,4.935443401E-3,-8.286118507E-3,-8.778667450E-2,8.831488312E-2
5.915102828E0,-2.224504948E-3,-2.959787101E-2,-7.043552399E-2,7.643392852E-2
5.919832724E0,-2.202332020E-3,-2.458790690E-2,-6.747436523E-2,7.184848917E-2
5.924562568E0,7.288038731E-3,-2.911555022E-2,-4.554367065E-2,5.454408043E-2
5.929292464E0,2.147611976E-2,-1.226659119E-2,-2.617073059E-2,3.600833402E-2
5.934022359E0,-1.193696260E-2,-9.802922606E-3,-6.156539917E-2,6.347351214E-2
5.938752203E0,2.411901951E-3,-1.207811385E-2,-3.018760681E-2,3.260352297E-2
5.943482099E0,-1.184853911E-2,-3.570168465E-2,-4.893016815E-2,6.171838884E-2
5.948211995E0,-1.414854825E-2,-7.102908194E-2,-4.852104187E-2,8.717570420E-2
5.952941839E0,-1.408337057E-2,-4.667916894E-2,-1.487731934E-2,5.097666888E-2
5.957671734E0,-9.270429611E-3,-6.523840129E-2,-3.849315643E-2,7.631325547E-2
5.962401578E0,-2.586457133E-2,-5.515241623E-2,-2.867221832E-2,6.732652649E-2
5.967131474E0,-9.082376957E-3,-4.752463847E-2,-6.404495239E-2,8.026728325E-2
5.971861370E0,1.473906636E-2,-4.470948130E-2,-2.552413940E-2,5.355053209E-2
5.976591214E0,2.174228430E-2,-4.672449827E-2,-2.531147003E-2,5.741581821E-2
5.981321109E0,1.204028726E-2,-4.394447058E-2,-6.107330322E-3,4.597156182E-2
5.986051005E0,-7.077723742E-3,-1.747534424E-2,5.816459656E-3,1.973101702E-2
5.990780849E0,-6.957918406E-3,-2.921316028E-2,2.713298798E-2,4.047246469E-2
5.995510745E0,1.983046532E-4,-5.183272064E-3,-1.345252991E-2,1.441791229E-2
6.000240589E0,-1.884919405E-2,-7.469266653E-3,1.040267944E-2,2.278810655E-2
6.004970484E0,-1.159420609E-2,4.507929087E-3,8.211135864E-4,1.246680661E-2
6.009700380E0,-3.051500022E-2,2.112731338E-3,-3.932952881E-3,3.083986042E-2
6.014430224E0,-1.129233837E-2,-7.386460900E-3,1.271915436E-2,1.854328984E-2
6.019160120E0,3.078997135E-3,3.302290291E-2,1.261234283E-2,3.548328524E-2
6.023890016E0,1.495650411E-2,1.374183595E-2,4.811954498E-2,5.223050526E-2
6.028619859E0,1.958408952E-2,3.260779381E-2,2.872562408E-2,4.766514721E-2
6.033349755E0,9.927928448E-3,4.187612236E-2,3.560733795E-2,5.585746058E-2
6.038079599E0,1.940298080E-2,4.869457334E-2,3.056240082E-2,6.067699301E-2
6.042809495E0,-9.244859219E-3,5.305209011E-2,1.817703247E-3,5.388223949E-2
6.047539391E0,-1.866012812E-2,6.212309748E-2,3.503990173E-2,7.372431305E-2
6.052269234E0,-1.855763793E-2,5.681593716E-2,3.712368011E-2,7.036053060E-2
6.056999130E0,1.246422529E-2,4.208337888E-2,5.343341827E-2,6.914837582E-2
6.061729026E0,-1.852422953E-3,4.652445018E-2,5.061435699E-2,6.877331655E-2
6.066458870E0,5.410909653E-4,5.805172026E-2,7.456779480E-3,5.853117601E-2
6.071188766E0,-1.373289526E-2,5.283541605E-2,-9.223937988E-3,5.536474179E-2
6.075918609E0,-6.435424089E-3,2.623757720E-2,-1.627159119E-2,3.153711814E-2
6.080648505E0,5.550086498E-3,5.689936131E-2,5.229949951E-3,5.740812795E-2
6.085378401E0,7.910937071E-3,4.216910526E-2,1.468181610E-2,4.534723903E-2
6.090108245E0,7.905870676E-3,6.317232549E-2,-4.434585571E-3,6.381936264E-2
6.094838141E0,-1.117771864E-2,6.975562125E-2,1.459503174E-2,7.213739004E-2
6.099568037E0,-2.775663137E-2,3.352092952E-2,1.210021973E-2,4.517187862E-2
6.104297880E0,-1.799634099E-2,1.895552874E-2,2.149581909E-2,3.384155134E-2
6.109027776E0,5.927801132E-3,-9.704157710E-3,2.323150635E-3,1.160631432E-2
6.113757620E0,-6.017148495E-3,1.645040512E-2,-9.568214417E-3,1.995927433E-2
6.118487516E0,-1.065415144E-2,6.776303053E-3,-2.373504639E-2,2.688459881E-2
6.123217412E0,1.080587506E-2,6.707124412E-3,-6.917953491E-3,1.447793267E-2
6.127947255E0,2.021637559E-2,1.918695867E-3,-2.110481262E-2,2.928816060E-2
6.132677151E0,-8.409500122E-3,-2.900239825E-2,5.185127258E-3,3.063893506E-2
6.137407047E0,-3.644108772E-3,-2.877341956E-2,2.769470215E-3,2.913518778E-2
6.142136891E0,-8.329361677E-3,-3.572496027E-2,-3.049278259E-2,4.770179077E-2
6.146866787E0,-3.479242325E-3,-4.261933267E-2,1.961612701E-2,4.704577647E-2
6.151596682E0,3.676682711E-3,-5.414611846E-2,-1.378631592E-2,5.599448765E-2
6.156326526E0,-5.846589804E-3,-6.088698655E-2,-1.129817963E-2,6.220174119E-2
6.161056422E0,-2.478712797E-2,-5.092415959E-2,-1.708030701E-3,5.666206060E-2
6.165786266E0,-3.208994865E-3,-5.528851599E-2,-2.068805695E-2,5.911948366E-2
6.170516162E0,6.290048361E-3,-3.341547400E-2,-3.001117706E-2,4.535228064E-2
6.175246057E0,-1.521088183E-2,-5.917920917E-2,-4.637813568E-2,7.671037214E-2
6.179975901E0,-8.350312710E-4,-7.054027915E-2,-8.821487427E-4,7.055073668E-2
6.184705797E0,-8.244514465E-4,-5.806670338E-2,1.099491119E-2,5.910422856E-2
6.189435641E0,6.280303001E-3,-5.996965617E-2,2.277565002E-2,6.445565996E-2
6.194165537E0,3.886193037E-3,-5.236016214E-2,1.216888428E-3,5.251828151E-2
6.198895432E0,-1.033049822E-2,-5.665712804E-2,-1.169204712E-3,5.760309358E-2
6.203625276E0,-2.208276093E-2,-4.670108110E-2,-3.439903259E-2,6.206394081E-2
6.208355172E0,-1.005253196E-2,-5.813843757E-2,-5.620956421E-3,5.926825856E-2
6.213085068E0,-7.591009140E-3,-3.627161682E-2,-2.456760406E-2,4.446145269E-2
6.217814912E0,1.621800661E-2,-3.352177888E-2,2.549457550E-2,4.512988785E-2
6.222544807E0,2.558335662E-2,-3.797497600E-2,1.815891266E-2,4.925802521E-2
6.227274703E0,1.828011870E-2,-1.630386710E-2,3.937435150E-2,4.637152551E-2
6.232004547E0,1.338338852E-2,-3.285668045E-2,2.242660522E-2,4.197176623E-2
6.236734443E0,1.567843556E-2,-2.312745154E-2,-1.502990723E-3,2.798126762E-2
6.241464287E0,2.030032873E-2,1.266554743E-2,-8.613586426E-3,2.543055858E-2
6.246194182E0,3.435149789E-2,5.424849689E-3,-1.091480255E-2,3.644979172E-2
6.250924078E0,1.027071476E-2,1.251784712E-2,-2.981376648E-2,3.392705042E-2
6.255653922E0,2.680841088E-2,1.002743840E-2,-5.825042725E-3,2.920910026E-2
6.260383818E0,-4.246175289E-3,9.960390627E-3,2.271270752E-2,2.516160704E-2
6.265113662E0,-1.833021641E-3,1.464068890E-2,3.439331055E-2,3.742471844E-2
6.269843557E0,-4.217058420E-3,2.400106937E-2,3.885650635E-2,4.586570612E-2
6.274573453E0,-4.178285599E-3,7.225498557E-3,5.464553833E-4,8.364479268E-3
6.279303297E0,5.385488272E-3,3.089406341E-2,1.715946198E-2,3.574764011E-2
6.284033193E0,-4.123240709E-3,3.534448892E-2,1.701545715E-2,3.944312098E-2
6.288763089E0,-2.539473772E-2,2.791631222E-2,-1.161766052E-2,3.948649424E-2
6.293492932E0,-1.466214657E-3,1.345454901E-2,3.121471405E-2,3.402253735E-2
6.298222828E0,-1.572342217E-2,2.757460624E-2,2.145957947E-2,3.831577306E-2
6.302952672E0,-1.324312389E-2,5.816680938E-2,5.214500427E-2,7.923294463E-2
6.307682568E0,-3.660708666E-3,3.389943391E-2,-5.269050598E-3,3.450123623E-2
6.312412464E0,-2.261914313E-2,1.220918447E-2,4.269599915E-3,2.605607999E-2
6.317142307E0,-1.773566008E-2,2.393624932E-2,-2.887725830E-3,2.993053007E-2
6.321872203E0,-2.710902691E-2,2.134992927E-2,6.633758545E-3,3.513866207E-2
6.326602099E0,1.342436671E-2,3.303004056E-2,1.607513428E-2,3.911019232E-2
6.331331943E0,1.473873854E-3,3.036717325E-2,2.781200409E-2,4.120491581E-2
6.336061839E0,-9.374320507E-4,2.778346092E-2,-3.282546997E-3,2.799240243E-2
6.340791682E0,-1.517055929E-2,3.228751570E-2,-8.811950684E-4,3.568481531E-2
6.345521578E0,-2.699637413E-2,3.572911024E-3,-1.749038696E-2,3.236485046E-2
6.350251474E0,-1.498211920E-2,3.558903933E-3,1.352119446E-2,2.049274000E-2
6.354981318E0,-3.384652734E-2,3.197784722E-2,-3.211021423E-3,4.667419827E-2
6.359711214E0,-1.931592822E-2,2.220132202E-2,3.937721252E-3,2.969022450E-2
6.364441109E0,-1.443122327E-2,1.722683758E-2,1.531600952E-3,2.252487380E-2
6.369170953E0,-1.430703700E-2,3.849484026E-2,-1.984882355E-2,4.561271567E-2
6.373900849E0,-4.273061454E-2,4.923276603E-3,-2.917861938E-2,5.197630134E-2
6.378630693E0,-9.132504463E-3,7.243685424E-3,-2.181339264E-2,2.473252342E-2
6.383360589E0,1.709133387E-2,9.544014931E-3,-4.300022125E-2,4.724638549E-2
6.388090484E0,3.622472286E-4,-9.569875896E-3,-9.405136108E-3,1.342275430E-2
6.392820328E0,1.460772753E-2,-9.503580630E-3,-1.407432556E-2,2.240067830E-2
6.397550224E0,-2.157568932E-3,-4.660330713E-3,-2.582645416E-2,2.633210057E-2
6.402280120E0,-1.163227856E-2,-6.951414049E-3,-1.136684418E-2,1.768720465E-2
6.407009964E0,2.684414387E-3,-1.877843589E-2,-2.314186096E-2,2.992292539E-2
6.411739859E0,5.011618137E-3,-1.860618591E-2,-1.580238342E-3,1.933400175E-2
6.416469755E0,1.690146327E-2,-2.321212739E-2,7.926940918E-3,2.978755967E-2
6.421199599E0,1.436185837E-2,-1.593741775E-2,-2.300262451E-2,3.145449085E-2
6.425929495E0,2.368545532E-2,-2.059481293E-2,-1.093959808E-2,3.323886159E-2
6.430659339E0,2.111786604E-2,-1.803329587E-2,-8.474349976E-3,2.903409433E-2
6.435389234E0,2.334812284E-2,-1.317662746E-2,-1.281738281E-3,2.684029069E-2
6.440119130E0,4.921558499E-2,-3.207420558E-2,-8.393287659E-3,5.934118087E-2
6.444848974E0,4.162970185E-2,-1.045304537E-2,-2.494049072E-2,4.964198134E-2
6.449578870E0,4.609256983E-2,-1.984526217E-2,-3.660488129E-2,6.211502844E-2
6.454308766E0,2.434533834E-2,-1.726077497E-2,-4.579639435E-2,5.466204887E-2
6.459038609E0,1.224717498E-2,-4.561939836E-2,-9.801864624E-3,4.824105463E-2
6.463768505E0,1.212087274E-2,-2.860369533E-2,1.877021790E-2,3.629611580E-2
6.468498349E0,7.303953171E-3,-9.356386960E-3,4.235458374E-2,4.398636690E-2
6.473228245E0,-4.709094763E-3,-6.916962564E-3,-7.305145264E-4,8.399618805E-3
6.477958141E0,9.579569101E-3,-1.156189293E-2,-1.496982574E-2,2.120238654E-2
6.482687984E0,-4.741191864E-3,-3.521972895E-2,-1.247024536E-2,3.766185373E-2
6.487417880E0,1.432421803E-2,-2.306744456E-2,-4.968643188E-4,2.715763420E-2
6.492147776E0,7.086634636E-3,-2.526130527E-2,2.324867249E-2,3.505502399E-2
6.496877620E0,9.405374527E-3,-1.797026396E-2,1.830482483E-2,2.732138482E-2
6.501607516E0,-2.539485693E-3,-3.616042435E-3,3.002262115E-2,3.034604639E-2
6.506337359E0,-2.428680658E-3,3.553040326E-3,-2.483463287E-2,2.520479270E-2
6.511067255E0,-2.852013707E-2,1.165047288E-3,-1.750564575E-2,3.348437228E-2
6.515797151E0,-2.590438724E-2,5.919396877E-3,-3.114700317E-3,2.675402578E-2
6.520526995E0,-3.280702233E-2,-8.387520909E-3,2.302646637E-2,4.094959554E-2
6.525256891E0,-2.068775892E-2,3.568120301E-3,2.520942688E-2,3.280594543E-2
6.529986787E0,-1.813694835E-2,3.554895520E-3,2.025222778E-2,2.741785746E-2
6.534716630E0,-6.139308214E-3,1.535560936E-2,5.838394165E-3,1.753775044E-2
6.539446526E0,-2.979753911E-2,3.658150882E-2,8.162498474E-3,4.788242377E-2
6.544176422E0,-2.007749677E-2,3.154337406E-2,8.095741272E-3,3.825743523E-2
6.548906266E0,-2.468332648E-2,4.319473729E-2,3.281593323E-3,4.985800628E-2
6.553636162E0,-1.737973094E-2,9.640932083E-3,1.987457275E-2,2.810696108E-2
6.558366005E0,-3.014564514E-3,4.856519401E-3,1.021194458E-2,1.170287110E-2
6.563095901E0,-1.728704572E-2,1.192653179E-2,2.674770355E-2,3.400770141E-2
6.567825797E0,-4.088056087E-2,2.608779073E-2,1.940250397E-2,5.223265495E-2
6.572555641E0,-3.101059794E-2,1.164200902E-2,4.994392395E-3,3.349832107E-2
6.577285537E0,9.612262249E-3,2.102887630E-2,-2.169609070E-3,2.322318729E-2
6.582015380E0,6.827712059E-5,2.796412259E-2,2.212524414E-4,2.796508121E-2
6.586745276E0,9.539723396E-3,3.976896405E-3,-6.901741028E-3,1.242803511E-2
6.591475172E0,-4.865825176E-3,1.102577895E-2,-2.108669281E-2,2.428770614E-2
6.596205016E0,1.417210698E-2,3.469187766E-2,4.558563232E-4,3.747776404E-2
6.600934912E0,1.880624890E-2,2.017366141E-2,1.232242584E-2,3.020751216E-2
6.605664807E0,2.120107412E-3,1.996512711E-2,1.696491241E-2,2.628515568E-2
6.610394651E0,9.229093790E-3,1.269281656E-2,-6.916999817E-3,1.715017932E-2
6.615124547E0,2.005219460E-3,1.494847238E-2,-2.109527588E-3,1.522917720E-2
6.619854391E0,-1.225216687E-2,-4.152767360E-3,-2.583312988E-2,2.889137707E-2
6.624584287E0,2.127230167E-3,-6.476543844E-3,-3.036594391E-2,3.112171714E-2
6.629314182E0,9.207665920E-3,-6.462998688E-3,-8.747100830E-3,1.425002585E-2
6.634044026E0,2.097713947E-2,-1.673549414E-3,1.506805420E-2,2.588218317E-2
6.638773922E0,1.837515831E-2,1.260105520E-2,2.206802368E-2,3.135969873E-2
6.643503818E0,1.342070103E-2,1.960577816E-2,-2.797222137E-2,3.670077549E-2
6.648233662E0,8.564203978E-3,-1.143498719E-2,-2.773952484E-2,3.120233581E-2
6.652963557E0,-8.179515600E-3,-2.556958795E-2,-2.275848389E-2,3.519455770E-2
6.657693453E0,-8.164674044E-3,-3.011824936E-2,3.548622131E-3,3.140642555E-2
6.662423297E0,2.042555809E-2,-2.272905409E-2,5.891799927E-3,3.112116048E-2
6.667153193E0,2.978405356E-2,-3.674106300E-2,1.093864441E-3,4.730953494E-2
6.671883037E0,1.057502627E-2,-1.510871947E-2,-6.038665771E-3,1.940541339E-2
6.676612932E0,1.984480023E-2,-1.739888638E-2,-1.310825348E-2,2.946801067E-2
6.681342828E0,-6.432265043E-3,-1.726659387E-2,1.245498657E-3,1.846782512E-2
6.686072672E0,2.686330676E-2,-1.238710433E-2,-3.512382507E-3,2.978950209E-2
6.690802568E0,1.005280018E-2,-9.979359806E-3,-1.060867310E-2,1.769718504E-2
6.695532464E0,2.850502729E-3,6.710141897E-3,-8.146286011E-3,1.093221596E-2
6.700262307E0,9.953409433E-3,-3.947839141E-4,8.542060852E-3,1.312223370E-2
6.704992203E0,5.154579878E-3,-2.646289766E-2,6.096839905E-3,2.764102211E-2
6.709722099E0,-9.072422981E-3,-3.334905952E-2,1.791381836E-2,3.892779878E-2
6.714451943E0,-8.935630322E-3,-2.121234685E-2,-3.602981567E-3,2.329786738E-2
6.719181839E0,-1.123073697E-2,2.666234970E-3,-1.069736481E-2,1.573759434E-2
6.723911682E0,-1.347859204E-2,1.687695831E-2,-2.722740173E-2,3.475392885E-2
6.728641578E0,-1.098784804E-2,2.451017499E-3,-1.987934113E-2,2.284575442E-2
6.733371474E0,3.324359655E-3,1.197216660E-2,1.827239990E-2,2.209671329E-2
6.738101318E0,-3.764599562E-3,4.738003016E-3,2.286815643E-2,2.365530514E-2
6.742831214E0,5.824208260E-3,4.742749035E-3,-1.065254211E-3,7.586160873E-3
6.747561057E0,1.295894384E-2,9.410351515E-3,-1.055526733E-2,1.918078751E-2
6.752290953E0,-1.333057880E-3,4.570938647E-3,-2.233982086E-2,2.284158750E-2
6.757020849E0,3.402084112E-3,-4.947222769E-3,-2.927398682E-2,2.988336483E-2
6.761750693E0,-2.511209249E-2,-2.544552088E-3,-2.428245544E-2,3.502469953E-2
6.766480589E0,-1.777645946E-2,-1.915507764E-2,-7.461547852E-3,2.717708973E-2
6.771210484E0,-1.522178948E-2,-4.763267934E-3,3.770923615E-2,4.094359641E-2
6.775940328E0,-1.757872105E-2,-7.109679282E-3,4.926872253E-2,5.279172277E-2
6.780670224E0,-5.614519119E-3,-4.688978195E-3,-9.975433350E-4,7.382711843E-3
6.785400068E0,-2.455699444E-2,-9.467832744E-3,-2.235794067E-2,3.453351045E-2
6.790129964E0,-2.981066704E-3,9.495764971E-5,-1.979732513E-2,2.002073570E-2
6.794859859E0,-6.066560745E-4,-2.292677760E-3,1.360607147E-2,1.381121225E-2
6.799589703E0,1.590722799E-2,1.204325259E-2,2.774238586E-2,3.417191550E-2
6.804319599E0,1.334807277E-2,1.911105961E-2,2.988719940E-2,3.790314412E-2
6.809049495E0,-3.406107426E-3,1.899752766E-2,4.150867462E-2,4.577638795E-2
6.813779339E0,6.037086248E-3,2.178251743E-3,1.267528534E-2,1.420753495E-2
6.818509234E0,-8.338987827E-3,1.642224938E-2,-3.016185760E-2,3.534072222E-2
6.823239078E0,-5.891710520E-3,4.401206970E-3,-2.753639221E-2,2.850150473E-2
6.827968974E0,1.787492633E-2,1.387839019E-2,-5.939483643E-3,2.339658461E-2
6.832698870E0,8.148163557E-3,1.936964691E-3,2.735137939E-2,2.860493587E-2
6.837428714E0,3.417107463E-2,3.039714694E-2,2.712440491E-2,5.317313443E-2
6.842158609E0,7.746100426E-3,3.725358099E-2,2.927303314E-2,4.800772685E-2
6.846888505E0,5.226552486E-3,1.793875545E-2,5.751991272E-2,6.047855948E-2
6.851618349E0,-1.383416355E-2,2.724620700E-2,1.430606842E-2,3.374023519E-2
6.856348245E0,2.847731113E-3,1.038891822E-2,1.656150818E-2,1.975658744E-2
6.861078089E0,-6.668359041E-3,1.026192307E-2,3.066825867E-2,3.301993590E-2
6.865807984E0,-4.263192415E-3,7.789544761E-3,4.298210144E-3,9.865415734E-3
6.870537880E0,-9.000837803E-3,-8.964799345E-3,-4.863739014E-4,1.271295670E-2
6.875267724E0,-4.201769829E-3,-1.808077097E-3,1.851177216E-2,1.906855319E-2
6.879997620E0,-2.321209013E-2,1.481557637E-2,2.073192596E-2,3.446904678E-2
6.884727516E0,1.251265407E-2,2.892579883E-2,3.941535950E-3,3.176167589E-2
6.889457359E0,1.710397005E-2,1.830235124E-4,3.910064697E-3,1.754616468E-2
6.894187255E0,2.691984177E-3,7.319711149E-3,-4.123115540E-2,4.196228218E-2
6.898917151E0,-1.397345960E-2,-9.343050420E-3,-7.648468018E-3,1.846751817E-2
6.903646995E0,-1.385308802E-2,2.471506596E-4,9.033203125E-3,1.653988784E-2
6.908376891E0,-2.323059738E-2,-1.401325315E-2,6.584167480E-3,2.791743505E-2
6.913106734E0,-1.121929288E-2,5.140945315E-3,-2.964973450E-3,1.269223853E-2
6.917836630E0,-1.827311516E-2,-1.388007402E-2,-1.955890656E-2,3.015151768E-2
6.922566526E0,-1.808845997E-2,-9.028822184E-3,-3.601646423E-2,4.130251457E-2
6.927296370E0,-2.268208563E-2,-2.083702385E-2,-2.147102356E-2,3.754548474E-2
6.932026266E0,-5.898892879E-3,-1.824577153E-2,-2.841377258E-2,3.427896714E-2
6.936756162E0,5.996435881E-3,-1.092705131E-2,-2.817630768E-2,3.081009588E-2
6.941486005E0,-1.304279268E-2,-1.295171678E-3,-3.981304169E-2,4.191503548E-2
6.946215901E0,-1.059710979E-3,-1.076596230E-2,-5.135154724E-2,5.247866553E-2
6.950945797E0,-2.241457999E-2,-1.193106174E-3,-4.142761230E-2,4.711776692E-2
6.955675641E0,-1.979279518E-2,1.539470255E-2,-3.396224976E-2,4.221594505E-2
6.960405537E0,-2.196989954E-2,-1.795665175E-2,-3.130626678E-2,4.225162917E-2
6.965135380E0,-2.175442874E-2,-1.309987158E-2,-4.054260254E-2,4.783894257E-2
6.969865276E0,-2.547264099E-3,-5.880214274E-3,-2.595996857E-2,2.673921170E-2
6.974595172E0,6.917536259E-3,1.306980848E-3,-2.099418640E-2,2.214308853E-2
6.979325016E0,6.835073233E-3,-1.058809459E-2,-2.081871033E-2,2.433607760E-2
6.984054912E0,-3.404021263E-4,1.085477322E-2,-2.539253235E-2,2.761743425E-2
6.988784807E0,2.578109503E-2,1.549765468E-2,-2.518081665E-2,3.922901590E-2
6.993514651E0,2.087879181E-2,-3.665827215E-3,-3.684425354E-2,4.250719063E-2
6.998244547E0,1.355749369E-2,1.099556684E-3,-1.279449463E-2,1.867387889E-2
7.002974391E0,-3.170549870E-3,-1.239538193E-3,-1.031303406E-2,1.086036431E-2
7.007704287E0,-3.225862980E-3,-5.962498486E-3,-7.851600647E-3,1.037329325E-2
7.012434182E0,-1.509396732E-2,-2.726365626E-2,8.833885193E-3,3.239092974E-2
7.017164026E0,6.402790546E-3,-3.336876631E-3,1.637458801E-3,7.403495374E-3
7.021893922E0,1.587840915E-2,-1.513560116E-2,2.299118042E-2,3.177742401E-2
7.026623818E0,2.521842718E-2,6.402820349E-3,6.181716919E-3,2.674282711E-2
7.031353662E0,3.588229418E-3,-7.564797997E-4,-1.286220551E-2,1.337475168E-2
7.036083557E0,1.305913925E-2,8.762925863E-3,1.573467255E-2,2.224657070E-2
7.040813401E0,3.429830074E-3,-7.968783379E-3,-3.389358521E-3,9.314128733E-3
7.045543297E0,-1.561646163E-2,1.581504941E-3,2.513027191E-2,2.962947178E-2
7.050273193E0,-1.067689061E-2,1.342713088E-2,-1.195907593E-3,1.719633774E-2
7.055003037E0,3.718405962E-3,-1.278313249E-2,4.154586792E-2,4.362675968E-2
7.059732932E0,2.033883333E-2,6.275415421E-3,5.544376373E-2,5.938905553E-2
7.064462828E0,-3.596037626E-3,1.492075622E-3,1.462173462E-2,1.513118963E-2
7.069192672E0,1.157969236E-3,1.096429676E-2,2.399826050E-2,2.640971797E-2
7.073922568E0,1.539835334E-2,1.089169085E-2,3.329467773E-2,3.826583046E-2
7.078652412E0,1.764929295E-2,2.031628788E-2,5.201148987E-2,5.856145638E-2
7.083382307E0,2.460011840E-2,2.725673467E-2,6.819820404E-2,7.745379555E-2
7.088112203E0,1.959380507E-2,1.042631269E-2,5.813407898E-2,6.222697431E-2
7.092842047E0,4.074540734E-2,7.925614715E-3,2.916145325E-2,5.072863041E-2
7.097571943E0,2.379077673E-2,1.496929675E-2,2.179622650E-2,3.556903699E-2
7.102301839E0,6.977409124E-3,-6.535477936E-3,1.449108124E-2,1.736053413E-2
7.107031682E0,1.644855738E-2,1.962265372E-2,2.386665344E-2,3.500315308E-2
7.111761578E0,1.394188404E-2,2.828888595E-3,7.048606873E-3,1.587644797E-2
7.116491474E0,1.148390770E-2,7.569372654E-3,3.547859192E-2,3.805136033E-2
7.121221318E0,2.097412944E-2,5.090974271E-3,3.043174744E-2,3.730848934E-2
7.125951214E0,1.842916012E-2,1.450395584E-2,2.305507660E-2,3.288670301E-2
7.130681057E0,-7.421672344E-4,1.824349165E-4,1.099300385E-2,1.101953848E-2
7.135410953E0,6.418824196E-3,9.664803743E-3,1.090049744E-2,1.591950313E-2
7.140140849E0,1.649439335E-3,1.034289598E-4,2.505397797E-2,2.510842806E-2
7.144870693E0,8.819282055E-3,4.895858467E-3,1.772212982E-2,2.039173979E-2
7.149600589E0,-1.027166843E-2,1.802220941E-4,3.330230713E-3,1.079954115E-2
7.154330484E0,-1.970720291E-2,-1.645302027E-2,3.303527832E-3,2.588414609E-2
7.159060328E0,-5.987080932E-2,2.911686897E-4,1.039695740E-2,6.076755146E-2
7.163790224E0,-4.272046685E-2,7.370017469E-3,-6.803703308E-2,8.067461383E-2
7.168520120E0,-1.618824899E-2,-6.921269000E-3,-1.761531830E-2,2.490507596E-2
7.173249964E0,-4.064798355E-3,-3.776869923E-2,-6.970310211E-2,7.938211178E-2
7.177979859E0,-1.589773595E-2,-2.553899586E-2,-2.638721466E-2,4.001578958E-2
7.182709703E0,-1.819211245E-2,-2.061828226E-2,-1.667022705E-2,3.215529487E-2
7.187439599E0,3.301948309E-3,-1.571163535E-2,-4.658699036E-3,1.671711173E-2
7.192169495E0,-3.844648600E-3,8.118093014E-3,7.248878479E-3,1.154257321E-2
7.196899339E0,8.033245802E-3,1.046806574E-2,-7.353115082E-2,7.470571316E-2
7.201629234E0,2.221453190E-2,-1.569207758E-2,-5.630016327E-2,6.252547569E-2
7.206359130E0,1.965862513E-2,-1.079875976E-2,-2.733993530E-2,3.536307137E-2
7.211088974E0,7.656425238E-3,-2.974312007E-2,-1.286888123E-2,3.329988203E-2
7.215818870E0,2.819478512E-3,-3.182593733E-2,-8.897781372E-4,3.196297000E-2
7.220548714E0,2.170768380E-2,-7.831946015E-3,1.573753357E-2,2.793264895E-2
7.225278609E0,1.915657520E-2,-1.021046191E-2,1.323127747E-2,2.542232502E-2
7.230008505E0,2.609479427E-2,-5.361311138E-3,-1.061916351E-2,2.867836430E-2
7.234738349E0,3.054416180E-2,-1.482593268E-2,-5.088901520E-2,6.117553406E-2
7.239468245E0,1.775562763E-3,-1.231171936E-2,-5.521297455E-2,5.659685164E-2
7.244198141E0,4.167020321E-3,-1.937348396E-2,-1.676654816E-2,2.595790970E-2
7.248927984E0,2.790617943E-2,-2.877826244E-2,1.660919189E-2,4.339134124E-2
7.253657880E0,2.527552843E-2,-4.779681563E-3,3.309059143E-2,4.191282542E-2
7.258387724E0,-2.484489977E-2,4.801705480E-3,2.569484711E-2,3.606314723E-2
7.263117620E0,-1.756812632E-2,-2.344235778E-3,-2.674770355E-2,3.208697787E-2
7.267847516E0,6.295204163E-3,3.674626350E-5,-6.688499451E-2,6.718060312E-2
7.272577359E0,-2.218586206E-2,1.189523935E-2,-3.309154510E-2,4.157835437E-2
7.277307255E0,-1.959472895E-2,1.418526471E-2,1.229190826E-2,2.713422463E-2
7.282037151E0,-2.652120590E-2,-1.440621912E-2,5.255031586E-2,6.060073604E-2
7.286766995E0,-1.923012733E-2,1.896917075E-2,2.837276459E-2,3.917449434E-2
7.291496891E0,-1.669178903E-2,3.069759160E-2,4.475593567E-2,5.678073378E-2
7.296226734E0,4.790067673E-3,1.386697590E-2,1.114463806E-2,1.842391724E-2
7.300956630E0,-1.189312339E-2,2.801281959E-2,1.817512512E-2,3.544713837E-2
7.305686526E0,-2.603527904E-2,1.824086159E-2,-7.456779480E-2,8.106121642E-2
7.310416370E0,-2.344025671E-2,2.997534722E-2,-5.970191956E-2,7.079750189E-2
7.315146266E0,-1.137053967E-2,1.074738055E-2,2.626514435E-2,3.057209788E-2
7.319876162E0,-2.074030042E-2,2.966599911E-2,7.590198517E-2,8.409127730E-2
7.324606005E0,1.035732031E-2,2.228364348E-2,7.289409637E-2,7.692453534E-2
7.329335901E0,-1.539468765E-3,2.920617908E-2,-1.313209534E-3,2.927619135E-2
7.334065797E0,-2.517908812E-2,1.230184734E-2,-8.677482605E-2,9.118767659E-2
7.338795641E0,-6.058156490E-3,5.062684417E-3,-7.417774200E-2,7.459671201E-2
7.343525537E0,3.492534161E-3,3.587096184E-2,3.802490234E-2,5.239100015E-2
7.348255380E0,-1.074934006E-2,2.131369710E-2,7.331943512E-2,7.710746761E-2
7.352985276E0,-1.071307063E-2,1.165450364E-2,6.083965302E-2,6.286541749E-2
7.357715172E0,1.194208860E-3,9.171284735E-3,-6.142616272E-3,1.110271738E-2
7.362445016E0,-3.588885069E-3,-9.911783040E-3,-1.321315765E-2,1.690299010E-2
7.367174912E0,-1.310892403E-2,1.630144566E-2,-5.346107483E-2,5.740790487E-2
7.371904807E0,3.594487906E-3,-1.236610115E-2,1.588821411E-3,1.297555988E-2
7.376634651E0,3.625392914E-3,1.140880585E-2,2.531528473E-2,2.800299922E-2
7.381364547E0,8.404612541E-3,-5.974322557E-4,7.258510590E-2,7.307251217E-2
7.386094443E0,1.548942924E-2,-1.010173559E-2,7.543563843E-4,1.850774253E-2
7.390824287E0,-3.628909588E-3,-5.336701870E-4,-3.011512756E-2,3.033767784E-2
7.395554182E0,2.967178822E-2,4.177913070E-3,-3.749847412E-3,3.019820076E-2
7.400284026E0,2.705428004E-2,-1.961109042E-2,3.664112091E-2,4.958932020E-2
7.405013922E0,7.456243038E-4,-9.992234409E-3,-1.827049255E-2,2.083774465E-2
7.409743818E0,-1.344464719E-2,-4.315975308E-2,1.749134064E-2,4.847132989E-2
7.414473662E0,3.652843833E-2,-1.192039251E-2,2.684307098E-2,4.687187882E-2
7.419203557E0,7.795393467E-3,-1.183301210E-2,3.848743439E-2,4.101305817E-2
7.423933453E0,1.010823250E-2,-2.124445140E-2,-2.118587494E-2,3.165982275E-2
7.428663297E0,2.905488014E-3,-1.867751777E-2,-6.764411926E-3,2.007607530E-2
7.433393193E0,-6.611078978E-3,-9.008757770E-3,2.415561676E-2,2.661499395E-2
7.438123037E0,-2.076849341E-2,-4.169628024E-3,-9.475326538E-2,9.709221090E-2
7.442852932E0,-1.584289968E-2,-1.833479851E-2,9.596729279E-2,9.897920787E-2
7.447582828E0,-2.039772272E-2,-1.816474646E-2,1.444435120E-2,3.089764373E-2
7.452312672E0,-2.262644470E-2,-2.274589986E-2,-6.639575958E-2,7.374095775E-2
7.457042568E0,-1.290921867E-2,-2.254134417E-2,4.099273682E-2,4.853003807E-2
7.461772464E0,2.041131258E-2,-8.094355464E-3,-6.143569946E-2,6.524174615E-2
7.466502307E0,-3.525108099E-3,-9.179189801E-4,1.979923248E-2,2.013153172E-2
7.471232203E0,-5.894750357E-3,6.227180362E-3,-2.309989929E-2,2.464003256E-2
7.475962099E0,5.972087383E-3,-7.996909320E-3,-1.578330994E-2,1.867429407E-2
7.480691943E0,2.251678705E-2,-1.031712443E-2,-2.752113342E-2,3.702514741E-2
7.485421839E0,1.764172316E-2,-7.472559810E-4,-2.017116547E-2,2.680792241E-2
7.490151682E0,2.705183625E-2,1.648120582E-3,-2.237987518E-2,3.514792966E-2
7.494881578E0,3.386738896E-2,-6.386116147E-4,2.529239655E-2,4.227426147E-2
7.499611474E0,1.517534256E-4,-5.606040359E-4,1.345634460E-3,1.465618671E-3
7.504341318E0,1.903373003E-2,1.805514097E-3,-1.036643982E-3,1.914725544E-2
7.509071214E0,3.787249327E-2,-5.372382700E-3,-2.002239227E-2,4.317504412E-2
7.513801109E0,2.566188574E-2,4.128552973E-3,6.259918213E-3,2.673506883E-2
7.518530953E0,3.494918346E-2,-5.385160446E-3,1.570415497E-2,3.869193535E-2
7.523260849E0,3.234466910E-2,1.712515950E-3,2.744293213E-2,4.245261893E-2
7.527990745E0,2.029368281E-2,-5.493827164E-3,2.721118927E-2,3.438698185E-2
7.532720589E0,-1.267015934E-3,4.036590457E-3,8.687973022E-4,4.319050897E-3
7.537450484E0,1.302111149E-2,-7.879734039E-3,-3.887176514E-3,1.570826834E-2
