"Time (s)","Acceleration x (m/s^2)","Acceleration y (m/s^2)","Acceleration z (m/s^2)","Absolute acceleration (m/s^2)"
3.680245700E-2,2.368894368E-1,-8.614161611E-2,9.918848038E0,9.922050362E0
3.916740500E-2,2.153540403E-1,-8.614161611E-2,9.935597420E0,9.938304374E0
4.153235300E-2,1.818545163E-1,-7.896314561E-2,9.933204651E0,9.935182982E0
4.389730100E-2,1.938186288E-1,-7.178468257E-2,9.926026344E0,9.928177964E0
4.626224900E-2,2.297109663E-1,-7.657032460E-2,9.947562218E0,9.950508742E0
4.862719700E-2,2.249253243E-1,-7.417750359E-2,9.930811882E0,9.933635706E0
5.099214400E-2,2.225325108E-1,-8.374879509E-2,9.928419113E0,9.931265814E0
5.335709200E-2,2.153540403E-1,-8.374879509E-2,9.949954987E0,9.952637613E0
5.572204000E-2,2.105683982E-1,-7.896314561E-2,9.949954987E0,9.952496092E0
5.808698800E-2,2.153540403E-1,-5.982056633E-2,9.942776680E0,9.945288531E0
6.045193600E-2,2.177468538E-1,-5.503492057E-2,9.935597420E0,9.938135571E0
6.281688400E-2,2.105683982E-1,-6.699903309E-2,9.930811882E0,9.933269983E0
6.518183200E-2,1.986042857E-1,-6.460621208E-2,9.940383911E0,9.942577630E0
6.754678000E-2,2.033899277E-1,-5.982056633E-2,9.945169449E0,9.947428880E0
6.991172800E-2,1.938186288E-1,-5.503492057E-2,9.947562218E0,9.949602433E0
7.227667600E-2,2.081755698E-1,-4.785645381E-2,9.940383911E0,9.942678694E0
7.464162400E-2,2.081755698E-1,-7.896314561E-2,9.945169449E0,9.947661414E0
7.700657200E-2,2.081755698E-1,-8.614161611E-2,9.940383911E0,9.942936676E0
7.937151900E-2,2.081755698E-1,-9.092725813E-2,9.935597420E0,9.938194047E0
8.173646700E-2,2.009970993E-1,-8.374879509E-2,9.930811882E0,9.933198796E0
8.410141500E-2,1.938186288E-1,-6.460621208E-2,9.937990189E0,9.940089970E0
8.646636300E-2,2.081755698E-1,-6.460621208E-2,9.921240807E0,9.923634927E0
8.883131100E-2,2.273181528E-1,-6.460621208E-2,9.928419113E0,9.931231222E0
9.119625900E-2,2.105683982E-1,-6.939185411E-2,9.940383911E0,9.942856058E0
9.356120700E-2,2.105683982E-1,-5.982056633E-2,9.933204651E0,9.935616347E0
9.592615500E-2,2.225325108E-1,-5.264209956E-2,9.923633575E0,9.926267942E0
9.829110300E-2,2.297109663E-1,-5.742774159E-2,9.923633575E0,9.926457999E0
1.006560510E-1,2.177468538E-1,-6.939185411E-2,9.935597420E0,9.938225446E0
1.030209990E-1,2.249253243E-1,-7.178468257E-2,9.942776680E0,9.945579548E0
1.053859470E-1,2.177468538E-1,-7.657032460E-2,9.947562218E0,9.950239735E0
1.077508940E-1,2.033899277E-1,-6.460621208E-2,9.937990189E0,9.940281204E0
1.101158420E-1,2.105683982E-1,-6.221338734E-2,9.940383911E0,9.942808550E0
1.124807900E-1,2.057827413E-1,-7.417750359E-2,9.928419113E0,9.930828512E0
1.148457380E-1,2.081755698E-1,-5.503492057E-2,9.940383911E0,9.942715837E0
1.172106860E-1,2.105683982E-1,-4.546362907E-2,9.933204651E0,9.935540279E0
1.195756340E-1,2.105683982E-1,-5.982056633E-2,9.923633575E0,9.926047597E0
1.219405820E-1,2.153540403E-1,-7.657032460E-2,9.935597420E0,9.938226022E0
1.243055820E-1,2.273181528E-1,-7.178468257E-2,9.923633575E0,9.926496357E0
1.266704780E-1,2.081755698E-1,-5.503492057E-2,9.923633575E0,9.925969436E0
1.290354780E-1,2.249253243E-1,-6.939185411E-2,9.926026344E0,9.928816929E0
1.314004260E-1,2.201396823E-1,-5.503492057E-2,9.930811882E0,9.933403997E0
1.337653740E-1,2.057827413E-1,-6.939185411E-2,9.935597420E0,9.937970510E0
1.361303220E-1,2.105683982E-1,-9.092725813E-2,9.947562218E0,9.950206073E0
1.384952690E-1,2.129612118E-1,-8.614161611E-2,9.949954987E0,9.952606548E0
1.408602170E-1,2.177468538E-1,-6.460621208E-2,9.940383911E0,9.942978425E0
1.432251650E-1,2.177468538E-1,-7.417750359E-2,9.930811882E0,9.933475758E0
1.455901130E-1,2.105683982E-1,-6.221338734E-2,9.926026344E0,9.928454489E0
1.479550610E-1,2.033899277E-1,-8.614161611E-2,9.928419113E0,9.930875789E0
1.503200090E-1,2.009970993E-1,-7.896314561E-2,9.923633575E0,9.925982992E0
1.526849570E-1,2.081755698E-1,-6.699903309E-2,9.918848038E0,9.921258606E0
1.550499050E-1,1.962114573E-1,-6.699903309E-2,9.930811882E0,9.932976011E0
1.574148530E-1,1.938186288E-1,-7.178468257E-2,9.942776680E0,9.944924676E0
1.597798010E-1,2.033899277E-1,-7.417750359E-2,9.937990189E0,9.940348020E0
1.621447490E-1,2.105683982E-1,-6.939185411E-2,9.947562218E0,9.950032581E0
1.645096970E-1,2.105683982E-1,-9.092725813E-2,9.940383911E0,9.943029675E0
1.668746440E-1,2.105683982E-1,-8.374879509E-2,9.942776680E0,9.945358768E0
1.692395920E-1,2.249253243E-1,-6.221338734E-2,9.937990189E0,9.940729898E0
1.716045400E-1,2.105683982E-1,-8.853443712E-2,9.930811882E0,9.933438581E0
1.739694880E-1,2.057827413E-1,-8.374879509E-2,9.949954987E0,9.952435111E0
1.763344360E-1,2.153540403E-1,-8.374879509E-2,9.935597420E0,9.938283922E0
1.786993840E-1,2.129612118E-1,-7.896314561E-2,9.933204651E0,9.935801039E0
1.810643320E-1,2.249253243E-1,-6.699903309E-2,9.947562218E0,9.950330364E0
1.834292800E-1,2.225325108E-1,-5.742774159E-2,9.935597420E0,9.938255116E0
1.857942280E-1,2.153540403E-1,-5.742774159E-2,9.930811882E0,9.933312637E0
1.881591760E-1,2.105683982E-1,-7.178468257E-2,9.930811882E0,9.933303415E0
1.905241240E-1,2.249253243E-1,-8.614161611E-2,9.940383911E0,9.943301468E0
1.928890720E-1,2.057827413E-1,-7.417750359E-2,9.952347755E0,9.954751362E0
1.952540190E-1,2.081755698E-1,-6.221338734E-2,9.930811882E0,9.933188421E0
1.976189670E-1,2.057827413E-1,-6.699903309E-2,9.930811882E0,9.933169688E0
1.999839150E-1,2.081755698E-1,-7.178468257E-2,9.935597420E0,9.938037341E0
2.023488630E-1,2.009970993E-1,-7.657032460E-2,9.959526062E0,9.961848334E0
2.047138110E-1,1.938186288E-1,-7.657032460E-2,9.954740524E0,9.956921592E0
2.070787590E-1,2.105683982E-1,-9.332008660E-2,9.930811882E0,9.933482387E0
2.094437070E-1,2.129612118E-1,-9.810572863E-2,9.933204651E0,9.935971611E0
2.118086550E-1,2.009970993E-1,-9.092725813E-2,9.930811882E0,9.933261913E0
2.141736030E-1,2.153540403E-1,-6.939185411E-2,9.921240807E0,9.923820420E0
2.165385510E-1,2.153540403E-1,-5.982056633E-2,9.918848038E0,9.921365947E0
2.189034990E-1,2.153540403E-1,-9.810572863E-2,9.933204651E0,9.936023185E0
2.212684470E-1,2.081755698E-1,-8.853443712E-2,9.930811882E0,9.933388146E0
2.236333940E-1,2.249253243E-1,-7.417750359E-2,9.937990189E0,9.940811973E0
2.259983420E-1,2.321037948E-1,-8.614161611E-2,9.947562218E0,9.950642523E0
2.283632900E-1,2.273181528E-1,-7.178468257E-2,9.949954987E0,9.952810197E0
2.307282380E-1,2.249253243E-1,-6.699903309E-2,9.926026344E0,9.928800495E0
2.330931860E-1,2.081755698E-1,-6.939185411E-2,9.933204651E0,9.935628160E0
2.354581340E-1,2.153540403E-1,-6.939185411E-2,9.935597420E0,9.938173307E0
2.378230820E-1,2.177468538E-1,-7.178468257E-2,9.928419113E0,9.931066046E0
2.401880300E-1,2.225325108E-1,-7.896314561E-2,9.933204651E0,9.936010796E0
2.425530300E-1,2.368894368E-1,-8.135596663E-2,9.926026344E0,9.929185988E0
2.449179780E-1,2.273181528E-1,-4.785645381E-2,9.921240807E0,9.923960042E0
2.472828740E-1,2.129612118E-1,-7.896314561E-2,9.926026344E0,9.928624610E0
2.496478740E-1,2.153540403E-1,-7.417750359E-2,9.930811882E0,9.933423594E0
2.520128220E-1,1.962114573E-1,-7.417750359E-2,9.926026344E0,9.928242555E0
2.543777690E-1,2.081755698E-1,-9.332008660E-2,9.937990189E0,9.940608366E0
2.567427170E-1,2.225325108E-1,-6.939185411E-2,9.945169449E0,9.947900850E0
2.591076650E-1,2.105683982E-1,-6.939185411E-2,9.937990189E0,9.940462930E0
2.614726130E-1,2.129612118E-1,-8.135596663E-2,9.937990189E0,9.940604622E0
2.638375610E-1,2.201396823E-1,-8.374879509E-2,9.933204651E0,9.935996678E0
2.662025090E-1,2.105683982E-1,-8.135596663E-2,9.928419113E0,9.930985043E0
2.685674570E-1,2.105683982E-1,-6.939185411E-2,9.911669731E0,9.914149038E0
2.709324050E-1,2.129612118E-1,-5.982056633E-2,9.935597420E0,9.938059522E0
2.732973530E-1,2.153540403E-1,-5.982056633E-2,9.945169449E0,9.947680696E0
2.756623010E-1,2.033899277E-1,-6.221338734E-2,9.930811882E0,9.933089278E0
2.780272490E-1,2.201396823E-1,-6.221338734E-2,9.923633575E0,9.926269960E0
2.803921970E-1,2.273181528E-1,-6.460621208E-2,9.930811882E0,9.933623314E0
2.827571440E-1,2.249253243E-1,-7.896314561E-2,9.926026344E0,9.928888436E0
2.851220920E-1,2.153540403E-1,-6.699903309E-2,9.942776680E0,9.945334300E0
2.874870400E-1,2.273181528E-1,-5.982056633E-2,9.942776680E0,9.945554794E0
2.898519880E-1,1.962114573E-1,-6.939185411E-2,9.940383911E0,9.942562369E0
2.922169360E-1,2.057827413E-1,-8.374879509E-2,9.942776680E0,9.945258594E0
2.945818840E-1,2.273181528E-1,-7.417750359E-2,9.923633575E0,9.926513949E0
2.969468320E-1,2.416750938E-1,-6.460621208E-2,9.921240807E0,9.924394186E0
2.993117800E-1,2.225325108E-1,-8.135596663E-2,9.926026344E0,9.928853836E0
3.016767280E-1,2.153540403E-1,-8.614161611E-2,9.937990189E0,9.940696491E0
3.040416760E-1,2.057827413E-1,-7.417750359E-2,9.937990189E0,9.940397267E0
3.064066240E-1,2.297109663E-1,-7.657032460E-2,9.940383911E0,9.943332562E0
3.087715720E-1,2.177468538E-1,-7.657032460E-2,9.947562218E0,9.950239735E0
3.111365190E-1,2.225325108E-1,-7.657032460E-2,9.933204651E0,9.935992068E0
3.135014670E-1,2.297109663E-1,-6.699903309E-2,9.937990189E0,9.940870434E0
3.158664150E-1,2.225325108E-1,-7.896314561E-2,9.942776680E0,9.945580124E0
3.182313630E-1,2.225325108E-1,-8.853443712E-2,9.942776680E0,9.945660721E0
3.205963110E-1,2.201396823E-1,-9.092725813E-2,9.940383911E0,9.943236975E0
3.229612590E-1,2.057827413E-1,-7.896314561E-2,9.933204651E0,9.935649770E0
3.253262070E-1,2.033899277E-1,-7.896314561E-2,9.935597420E0,9.937992691E0
3.276911550E-1,2.081755698E-1,-7.178468257E-2,9.952347755E0,9.954783571E0
3.300561030E-1,2.225325108E-1,-8.374879509E-2,9.940383911E0,9.943227186E0
3.324210510E-1,2.249253243E-1,-8.135596663E-2,9.937990189E0,9.940868130E0
3.347859990E-1,2.273181528E-1,-8.853443712E-2,9.957133293E0,9.960121250E0
3.371509470E-1,2.225325108E-1,-8.614161611E-2,9.940383911E0,9.943247628E0
3.395158940E-1,2.201396823E-1,-6.699903309E-2,9.923633575E0,9.926301108E0
3.418808420E-1,2.273181528E-1,-6.221338734E-2,9.940383911E0,9.943177377E0
3.442457900E-1,2.368894368E-1,-6.699903309E-2,9.937990189E0,9.941038903E0
3.466107380E-1,2.392822653E-1,-7.417750359E-2,9.937990189E0,9.941147182E0
3.489757380E-1,2.368894368E-1,-6.221338734E-2,9.933204651E0,9.936223717E0
3.513406340E-1,2.105683982E-1,-6.699903309E-2,9.923633575E0,9.926093454E0
3.537056340E-1,2.057827413E-1,-6.699903309E-2,9.914062500E0,9.916424288E0
3.560705820E-1,2.129612118E-1,-7.178468257E-2,9.930811882E0,9.933354426E0
3.584354780E-1,2.153540403E-1,-7.417750359E-2,9.926026344E0,9.928639315E0
3.608004780E-1,2.249253243E-1,-8.374879509E-2,9.928419113E0,9.931319718E0
3.631654260E-1,2.129612118E-1,-9.332008660E-2,9.928419113E0,9.931141284E0
3.655303220E-1,2.201396823E-1,-9.092725813E-2,9.921240807E0,9.924099374E0
3.678953220E-1,2.153540403E-1,-1.004985496E-1,9.935597420E0,9.938439184E0
3.702602690E-1,2.177468538E-1,-8.135596663E-2,9.937990189E0,9.940708298E0
3.726252170E-1,2.057827413E-1,-8.614161611E-2,9.935597420E0,9.938101579E0
3.749901650E-1,2.057827413E-1,-8.135596663E-2,9.930811882E0,9.933276900E0
3.773551130E-1,2.129612118E-1,-7.178468257E-2,9.940383911E0,9.942924008E0
3.797200610E-1,2.201396823E-1,-8.135596663E-2,9.942776680E0,9.945546158E0
3.820850090E-1,1.914258152E-1,-7.896314561E-2,9.945169449E0,9.947324987E0
3.844499570E-1,2.033899277E-1,-8.614161611E-2,9.930811882E0,9.933267966E0
3.868149050E-1,2.201396823E-1,-6.939185411E-2,9.926026344E0,9.928709669E0
3.891798530E-1,2.201396823E-1,-6.460621208E-2,9.921240807E0,9.923893116E0
3.915448010E-1,2.129612118E-1,-8.135596663E-2,9.923633575E0,9.926251791E0
3.939097490E-1,2.249253243E-1,-7.417750359E-2,9.926026344E0,9.928851529E0
3.962746970E-1,2.225325108E-1,-6.699903309E-2,9.923633575E0,9.926354463E0
3.986396440E-1,2.081755698E-1,-5.264209956E-2,9.935597420E0,9.937917505E0
4.010045920E-1,2.177468538E-1,-7.417750359E-2,9.947562218E0,9.950221609E0
4.033695400E-1,2.057827413E-1,-7.178468257E-2,9.952347755E0,9.954733820E0
4.057344880E-1,2.225325108E-1,-6.939185411E-2,9.935597420E0,9.938331451E0
4.080994360E-1,2.225325108E-1,-8.374879509E-2,9.928419113E0,9.931265814E0
4.104643840E-1,2.225325108E-1,-7.178468257E-2,9.928419113E0,9.931172128E0
4.128293320E-1,2.177468538E-1,-6.460621208E-2,9.942776680E0,9.945370569E0
4.151942800E-1,2.297109663E-1,-5.982056633E-2,9.945169449E0,9.948001859E0
4.175592280E-1,2.153540403E-1,-5.264209956E-2,9.940383911E0,9.942855770E0
4.199241760E-1,2.009970993E-1,-5.503492057E-2,9.928419113E0,9.930605962E0
4.222891240E-1,2.129612118E-1,-5.982056633E-2,9.933204651E0,9.935667346E0
4.246540720E-1,2.177468538E-1,-5.742774159E-2,9.923633575E0,9.926188341E0
4.270190190E-1,2.081755698E-1,-9.332008660E-2,9.921240807E0,9.923863403E0
4.293839670E-1,2.057827413E-1,-1.028913707E-1,9.930811882E0,9.933476622E0
4.317489150E-1,2.225325108E-1,-8.614161611E-2,9.933204651E0,9.936070437E0
4.341138630E-1,2.129612118E-1,-6.221338734E-2,9.926026344E0,9.928505526E0
4.364788110E-1,2.177468538E-1,-5.024927482E-2,9.933204651E0,9.935718058E0
4.388437590E-1,2.225325108E-1,-5.503492057E-2,9.945169449E0,9.947811062E0
4.412087070E-1,2.201396823E-1,-7.896314561E-2,9.930811882E0,9.933565387E0
4.435736550E-1,2.033899277E-1,-8.135596663E-2,9.933204651E0,9.935619804E0
4.459386030E-1,2.033899277E-1,-6.939185411E-2,9.933204651E0,9.935529041E0
4.483035510E-1,1.890329868E-1,-7.657032460E-2,9.923633575E0,9.925729184E0
4.506684990E-1,2.009970993E-1,-9.092725813E-2,9.923633575E0,9.926085378E0
4.530334470E-1,2.201396823E-1,-8.614161611E-2,9.933204651E0,9.936017134E0
4.553983940E-1,2.249253243E-1,-8.135596663E-2,9.933204651E0,9.936083979E0
4.577633420E-1,2.225325108E-1,-7.896314561E-2,9.923633575E0,9.926442426E0
4.601282900E-1,2.081755698E-1,-8.853443712E-2,9.947562218E0,9.950134144E0
4.624932380E-1,2.009970993E-1,-7.657032460E-2,9.930811882E0,9.933140867E0
4.648581860E-1,2.105683982E-1,-8.853443712E-2,9.918848038E0,9.921477904E0
4.672231340E-1,2.057827413E-1,-9.332008660E-2,9.928419113E0,9.930989944E0
4.695881340E-1,2.105683982E-1,-8.853443712E-2,9.923633575E0,9.926262173E0
4.719530820E-1,2.129612118E-1,-7.657032460E-2,9.928419113E0,9.930998015E0
4.743180300E-1,2.201396823E-1,-6.221338734E-2,9.935597420E0,9.938230631E0
4.766829780E-1,2.129612118E-1,-8.853443712E-2,9.930811882E0,9.933489591E0
4.790479260E-1,2.201396823E-1,-8.374879509E-2,9.945169449E0,9.947958117E0
4.814128740E-1,2.344966233E-1,-6.939185411E-2,9.937990189E0,9.940998586E0
4.837778220E-1,2.273181528E-1,-7.178468257E-2,9.937990189E0,9.940848836E0
4.861427690E-1,2.249253243E-1,-6.699903309E-2,9.945169449E0,9.947938261E0
4.885077170E-1,2.273181528E-1,-6.460621208E-2,9.940383911E0,9.943192636E0
4.908726650E-1,2.177468538E-1,-7.178468257E-2,9.926026344E0,9.928673916E0
4.932376130E-1,2.201396823E-1,-7.896314561E-2,9.928419113E0,9.931173281E0
4.956025610E-1,2.177468538E-1,-9.332008660E-2,9.937990189E0,9.940813413E0
4.979675090E-1,2.105683982E-1,-7.178468257E-2,9.935597420E0,9.938087753E0
5.003324570E-1,2.153540403E-1,-6.939185411E-2,9.933204651E0,9.935781158E0
5.026974050E-1,2.129612118E-1,-6.460621208E-2,9.928419113E0,9.930912975E0
5.050623530E-1,1.914258152E-1,-6.699903309E-2,9.933204651E0,9.935274901E0
5.074273010E-1,2.033899277E-1,-8.135596663E-2,9.937990189E0,9.940404179E0
5.097922490E-1,2.129612118E-1,-7.896314561E-2,9.937990189E0,9.940585327E0
5.121571970E-1,2.081755698E-1,-7.896314561E-2,9.937990189E0,9.940483954E0
5.145221440E-1,2.105683982E-1,-7.417750359E-2,9.945169449E0,9.947674940E0
5.168870920E-1,1.962114573E-1,-8.853443712E-2,9.930811882E0,9.933144614E0
5.192520400E-1,2.105683982E-1,-8.374879509E-2,9.928419113E0,9.931004934E0
5.216169880E-1,2.273181528E-1,-8.614161611E-2,9.928419113E0,9.931394666E0
5.239819360E-1,2.105683982E-1,-9.092725813E-2,9.928419113E0,9.931068065E0
5.263468840E-1,2.081755698E-1,-8.374879509E-2,9.928419113E0,9.930954487E0
5.287118320E-1,2.033899277E-1,-9.332008660E-2,9.937990189E0,9.940509297E0
5.310767800E-1,2.201396823E-1,-8.374879509E-2,9.942776680E0,9.945566020E0
5.334417280E-1,2.368894368E-1,-6.221338734E-2,9.928419113E0,9.931439634E0
5.358066760E-1,2.368894368E-1,-5.024927482E-2,9.918848038E0,9.921803666E0
5.381716240E-1,2.225325108E-1,-7.657032460E-2,9.937990189E0,9.940776264E0
5.405365720E-1,2.297109663E-1,-8.135596663E-2,9.933204651E0,9.936193464E0
5.429015190E-1,2.057827413E-1,-8.135596663E-2,9.928419113E0,9.930884725E0
5.452664670E-1,2.129612118E-1,-7.178468257E-2,9.930811882E0,9.933354426E0
5.476314150E-1,2.105683982E-1,-7.657032460E-2,9.937990189E0,9.940515633E0
5.499963630E-1,2.081755698E-1,-7.896314561E-2,9.949954987E0,9.952445754E0
5.523613110E-1,2.273181528E-1,-6.699903309E-2,9.945169449E0,9.947992651E0
5.547262590E-1,2.129612118E-1,-6.939185411E-2,9.959526062E0,9.962044323E0
5.570912070E-1,2.273181528E-1,-7.178468257E-2,9.940383911E0,9.943241870E0
5.594561550E-1,2.057827413E-1,-6.939185411E-2,9.930811882E0,9.933186115E0
5.618211030E-1,2.129612118E-1,-6.699903309E-2,9.921240807E0,9.923752339E0
5.641860510E-1,2.129612118E-1,-6.699903309E-2,9.918848038E0,9.921360176E0
5.665509990E-1,2.105683982E-1,-8.853443712E-2,9.926026344E0,9.928654309E0
5.689159470E-1,2.177468538E-1,-8.614161611E-2,9.930811882E0,9.933572303E0
5.712808940E-1,2.273181528E-1,-8.135596663E-2,9.937990189E0,9.940922559E0
5.736458420E-1,2.249253243E-1,-9.571290761E-2,9.942776680E0,9.945781039E0
5.760107900E-1,2.009970993E-1,-9.092725813E-2,9.930811882E0,9.933261913E0
5.783757380E-1,1.962114573E-1,-8.135596663E-2,9.918848038E0,9.921122120E0
5.807406860E-1,1.986042857E-1,-8.135596663E-2,9.930811882E0,9.933130780E0
5.831056340E-1,2.033899277E-1,-8.614161611E-2,9.935597420E0,9.938052321E0
5.854706340E-1,2.129612118E-1,-7.657032460E-2,9.945169449E0,9.947744009E0
5.878355820E-1,2.153540403E-1,-5.982056633E-2,9.947562218E0,9.950072861E0
5.902005300E-1,2.201396823E-1,-7.896314561E-2,9.930811882E0,9.933565387E0
5.925654780E-1,2.177468538E-1,-7.657032460E-2,9.923633575E0,9.926317547E0
5.949304260E-1,2.177468538E-1,-7.657032460E-2,9.947562218E0,9.950239735E0
5.972953740E-1,2.153540403E-1,-7.657032460E-2,9.942776680E0,9.945403385E0
5.996603220E-1,2.249253243E-1,-8.135596663E-2,9.933204651E0,9.936083979E0
6.020252690E-1,2.225325108E-1,-8.853443712E-2,9.933204651E0,9.936091470E0
6.043902170E-1,2.249253243E-1,-8.614161611E-2,9.921240807E0,9.924163991E0
6.067551650E-1,2.321037948E-1,-6.699903309E-2,9.916455269E0,9.919397469E0
6.091201130E-1,2.153540403E-1,-7.178468257E-2,9.930811882E0,9.933406014E0
6.114850610E-1,2.009970993E-1,-7.896314561E-2,9.930811882E0,9.933159600E0
6.138500090E-1,2.129612118E-1,-7.417750359E-2,9.937990189E0,9.940548464E0
6.162149570E-1,2.201396823E-1,-5.982056633E-2,9.935597420E0,9.938215940E0
6.185799050E-1,2.177468538E-1,-6.699903309E-2,9.933204651E0,9.935816886E0
6.209448530E-1,2.273181528E-1,-6.460621208E-2,9.928419113E0,9.931231222E0
6.233098010E-1,2.177468538E-1,-7.896314561E-2,9.933204651E0,9.935904765E0
6.256747490E-1,2.153540403E-1,-6.699903309E-2,9.928419113E0,9.930980431E0
6.280396970E-1,2.081755698E-1,-6.460621208E-2,9.926026344E0,9.928419311E0
6.304046440E-1,1.986042857E-1,-8.135596663E-2,9.937990189E0,9.940307412E0
6.327695920E-1,1.962114573E-1,-6.460621208E-2,9.942776680E0,9.944922373E0
6.351345400E-1,2.033899277E-1,-7.417750359E-2,9.949954987E0,9.952309983E0
6.374994880E-1,1.962114573E-1,-8.614161611E-2,9.942776680E0,9.945085591E0
6.398644360E-1,1.962114573E-1,-6.460621208E-2,9.952347755E0,9.954491385E0
6.422293840E-1,2.081755698E-1,-7.896314561E-2,9.949954987E0,9.952445754E0
6.445943320E-1,2.201396823E-1,-7.657032460E-2,9.947562218E0,9.950292386E0
6.469592800E-1,2.177468538E-1,-7.896314561E-2,9.940383911E0,9.943082076E0
6.493242280E-1,2.081755698E-1,-7.417750359E-2,9.930811882E0,9.933270559E0
6.516891760E-1,2.225325108E-1,-7.657032460E-2,9.928419113E0,9.931207873E0
6.540541240E-1,2.081755698E-1,-6.939185411E-2,9.940383911E0,9.942805670E0
6.564190720E-1,2.009970993E-1,-8.374879509E-2,9.935597420E0,9.937983185E0
6.587840190E-1,2.105683982E-1,-8.374879509E-2,9.933204651E0,9.935789226E0
6.611489670E-1,2.129612118E-1,-9.810572863E-2,9.918848038E0,9.921619001E0
6.635139150E-1,2.129612118E-1,-7.417750359E-2,9.933204651E0,9.935764159E0
6.658788630E-1,2.201396823E-1,-7.417750359E-2,9.933204651E0,9.935920613E0
6.682438110E-1,2.105683982E-1,-6.699903309E-2,9.928419113E0,9.930877806E0
6.706087590E-1,2.177468538E-1,-7.417750359E-2,9.923633575E0,9.926299378E0
6.729737070E-1,2.177468538E-1,-8.614161611E-2,9.945169449E0,9.947925886E0
6.753386550E-1,2.105683982E-1,-8.374879509E-2,9.933204651E0,9.935789226E0
6.777036030E-1,2.081755698E-1,-6.699903309E-2,9.937990189E0,9.940396115E0
6.800685510E-1,1.962114573E-1,-7.657032460E-2,9.926026344E0,9.928260721E0
6.824334990E-1,2.057827413E-1,-5.503492057E-2,9.930811882E0,9.933096195E0
6.847984470E-1,2.081755698E-1,-5.742774159E-2,9.921240807E0,9.923590789E0
6.871634470E-1,2.081755698E-1,-6.939185411E-2,9.918848038E0,9.921275054E0
6.895283420E-1,2.201396823E-1,-7.417750359E-2,9.921240807E0,9.923960042E0
6.918933420E-1,2.225325108E-1,-8.374879509E-2,9.935597420E0,9.938442064E0
6.942582900E-1,2.105683982E-1,-7.417750359E-2,9.942776680E0,9.945282774E0
6.966232380E-1,2.249253243E-1,-7.178468257E-2,9.935597420E0,9.938402313E0
6.989881860E-1,2.129612118E-1,-6.939185411E-2,9.947562218E0,9.950083506E0
7.013531340E-1,2.129612118E-1,-7.178468257E-2,9.949954987E0,9.952492640E0
7.037180820E-1,2.201396823E-1,-7.896314561E-2,9.937990189E0,9.940741705E0
7.060830300E-1,2.344966233E-1,-7.657032460E-2,9.947562218E0,9.950620370E0
7.084479780E-1,2.201396823E-1,-9.092725813E-2,9.947562218E0,9.950413224E0
7.108129260E-1,2.321037948E-1,-7.896314561E-2,9.933204651E0,9.936229767E0
7.131778740E-1,2.297109663E-1,-7.657032460E-2,9.940383911E0,9.943332562E0
7.155428220E-1,2.009970993E-1,-8.853443712E-2,9.928419113E0,9.930848114E0
7.179077690E-1,2.033899277E-1,-7.896314561E-2,9.928419113E0,9.930816116E0
7.202727170E-1,2.009970993E-1,-8.614161611E-2,9.940383911E0,9.942788971E0
7.226376650E-1,2.153540403E-1,-9.332008660E-2,9.945169449E0,9.947938549E0
7.250026130E-1,2.225325108E-1,-8.374879509E-2,9.947562218E0,9.950403442E0
7.273675610E-1,2.009970993E-1,-8.614161611E-2,9.911669731E0,9.914081756E0
7.297325090E-1,2.009970993E-1,-5.503492057E-2,9.923633575E0,9.925821478E0
7.320974570E-1,2.129612118E-1,-5.024927482E-2,9.928419113E0,9.930829953E0
7.344624050E-1,2.153540403E-1,-5.742774159E-2,9.930811882E0,9.933312637E0
7.368273530E-1,2.105683982E-1,-5.264209956E-2,9.930811882E0,9.933183522E0
7.391923010E-1,2.081755698E-1,-6.460621208E-2,9.942776680E0,9.945165616E0
7.415572490E-1,2.033899277E-1,-5.982056633E-2,9.942776680E0,9.945036655E0
7.439221970E-1,2.105683982E-1,-7.178468257E-2,9.942776680E0,9.945265215E0
7.462871440E-1,1.962114573E-1,-6.460621208E-2,9.930811882E0,9.932960160E0
7.486520920E-1,1.890329868E-1,-7.178468257E-2,9.933204651E0,9.935262510E0
7.510170400E-1,1.962114573E-1,-7.657032460E-2,9.933204651E0,9.935437413E0
7.533819880E-1,2.081755698E-1,-7.657032460E-2,9.935597420E0,9.938073061E0
7.557469360E-1,2.249253243E-1,-5.982056633E-2,9.937990189E0,9.940715210E0
7.581118840E-1,2.201396823E-1,-7.417750359E-2,9.954740524E0,9.957450612E0
7.604768320E-1,2.009970993E-1,-7.657032460E-2,9.952347755E0,9.954671702E0
7.628417800E-1,2.057827413E-1,-6.699903309E-2,9.949954987E0,9.952308257E0
7.652067280E-1,2.201396823E-1,-7.657032460E-2,9.935597420E0,9.938330875E0
7.675716760E-1,2.177468538E-1,-8.374879509E-2,9.940383911E0,9.943121233E0
7.699366240E-1,2.321037948E-1,-8.135596663E-2,9.937990189E0,9.941033143E0
7.723015720E-1,2.225325108E-1,-8.853443712E-2,9.921240807E0,9.924131106E0
7.746665190E-1,2.081755698E-1,-6.699903309E-2,9.942776680E0,9.945181449E0
7.770314670E-1,2.321037948E-1,-8.135596663E-2,9.935597420E0,9.938641107E0
7.793964150E-1,2.177468538E-1,-8.853443712E-2,9.930811882E0,9.933593342E0
7.817613630E-1,2.081755698E-1,-5.742774159E-2,9.918848038E0,9.921198587E0
7.841263110E-1,2.081755698E-1,-7.178468257E-2,9.926026344E0,9.928468618E0
7.864912590E-1,2.081755698E-1,-6.699903309E-2,9.942776680E0,9.945181449E0
7.888562070E-1,1.962114573E-1,-5.024927482E-2,9.928419113E0,9.930484883E0
7.912211550E-1,2.009970993E-1,-6.939185411E-2,9.933204651E0,9.935480346E0
7.935861030E-1,2.009970993E-1,-8.374879509E-2,9.926026344E0,9.928414409E0
7.959510510E-1,2.057827413E-1,-6.221338734E-2,9.928419113E0,9.930746353E0
7.983159990E-1,2.105683982E-1,-5.982056633E-2,9.930811882E0,9.933224159E0
8.006809990E-1,2.153540403E-1,-6.699903309E-2,9.937990189E0,9.940549040E0
8.030458940E-1,2.201396823E-1,-6.939185411E-2,9.935597420E0,9.938278161E0
8.054108420E-1,2.081755698E-1,-7.417750359E-2,9.940383911E0,9.942840222E0
8.077758420E-1,2.033899277E-1,-7.657032460E-2,9.930811882E0,9.933189574E0
8.101407900E-1,2.081755698E-1,-7.417750359E-2,9.949954987E0,9.952408935E0
8.125057380E-1,2.105683982E-1,-7.657032460E-2,9.935597420E0,9.938123472E0
8.148706860E-1,2.105683982E-1,-6.939185411E-2,9.935597420E0,9.938070757E0
8.172356340E-1,2.129612118E-1,-5.982056633E-2,9.926026344E0,9.928490820E0
8.196005820E-1,1.890329868E-1,-5.742774159E-2,9.933204651E0,9.935169151E0
8.219655300E-1,2.177468538E-1,-6.699903309E-2,9.933204651E0,9.935816886E0
8.243304780E-1,2.297109663E-1,-8.135596663E-2,9.930811882E0,9.933801415E0
8.266954260E-1,2.297109663E-1,-7.178468257E-2,9.935597420E0,9.938511773E0
8.290603740E-1,2.273181528E-1,-7.657032460E-2,9.940383911E0,9.943277571E0
8.314253220E-1,2.033899277E-1,-7.896314561E-2,9.945169449E0,9.947562415E0
8.337902690E-1,2.273181528E-1,-6.460621208E-2,9.942776680E0,9.945584730E0
8.361552170E-1,2.273181528E-1,-7.178468257E-2,9.935597420E0,9.938456755E0
8.385201650E-1,2.153540403E-1,-8.853443712E-2,9.940383911E0,9.943110580E0
8.408851130E-1,2.129612118E-1,-6.939185411E-2,9.947562218E0,9.950083506E0
8.432500610E-1,2.153540403E-1,-5.742774159E-2,9.937990189E0,9.940489138E0
8.456150090E-1,2.105683982E-1,-7.896314561E-2,9.935597420E0,9.938142196E0
8.479799570E-1,2.105683982E-1,-8.135596663E-2,9.949954987E0,9.952515364E0
8.503449050E-1,2.153540403E-1,-6.699903309E-2,9.933204651E0,9.935764735E0
8.527098530E-1,2.105683982E-1,-7.417750359E-2,9.923633575E0,9.926144503E0
8.550748010E-1,2.297109663E-1,-8.374879509E-2,9.937990189E0,9.940997434E0
8.574397490E-1,2.297109663E-1,-6.460621208E-2,9.940383911E0,9.943247628E0
8.598046970E-1,2.129612118E-1,-7.178468257E-2,9.937990189E0,9.940530897E0
8.621696440E-1,1.938186288E-1,-7.657032460E-2,9.930811882E0,9.932998204E0
8.645345920E-1,2.201396823E-1,-8.374879509E-2,9.933204651E0,9.935996678E0
8.668995400E-1,2.129612118E-1,-8.135596663E-2,9.928419113E0,9.931036067E0
8.692644880E-1,2.081755698E-1,-7.417750359E-2,9.918848038E0,9.921309680E0
8.716294360E-1,2.249253243E-1,-7.417750359E-2,9.916455269E0,9.919283180E0
8.739943840E-1,2.201396823E-1,-6.939185411E-2,9.933204651E0,9.935886037E0
8.763593320E-1,2.129612118E-1,-7.896314561E-2,9.945169449E0,9.947762714E0
8.787242800E-1,2.009970993E-1,-4.785645381E-2,9.949954987E0,9.952099995E0
8.810892280E-1,2.033899277E-1,-6.939185411E-2,9.947562218E0,9.949883254E0
8.834541760E-1,2.105683982E-1,-7.417750359E-2,9.937990189E0,9.940497490E0
8.858191240E-1,2.081755698E-1,-8.614161611E-2,9.937990189E0,9.940543568E0
8.881840720E-1,2.177468538E-1,-8.135596663E-2,9.940383911E0,9.943101367E0
8.905490190E-1,2.321037948E-1,-9.092725813E-2,9.930811882E0,9.933940033E0
8.929139670E-1,2.297109663E-1,-7.657032460E-2,9.935597420E0,9.938547491E0
8.952789150E-1,2.129612118E-1,-7.417750359E-2,9.933204651E0,9.935764159E0
8.976438630E-1,2.081755698E-1,-7.178468257E-2,9.933204651E0,9.935645160E0
9.000088110E-1,1.914258152E-1,-7.657032460E-2,9.933204651E0,9.935344055E0
9.023737590E-1,2.009970993E-1,-7.178468257E-2,9.942776680E0,9.945067168E0
9.047387070E-1,2.201396823E-1,-9.092725813E-2,9.935597420E0,9.938451858E0
9.071036550E-1,2.177468538E-1,-7.657032460E-2,9.930811882E0,9.933493914E0
9.094686030E-1,2.081755698E-1,-7.657032460E-2,9.942776680E0,9.945250534E0
9.118335510E-1,2.153540403E-1,-6.460621208E-2,9.921240807E0,9.923788111E0
9.141984990E-1,2.225325108E-1,-6.939185411E-2,9.918848038E0,9.921586685E0
9.165634990E-1,2.344966233E-1,-6.460621208E-2,9.933204651E0,9.936182228E0
9.189284470E-1,2.273181528E-1,-6.699903309E-2,9.933204651E0,9.936031252E0
9.212933940E-1,2.225325108E-1,-7.178468257E-2,9.933204651E0,9.935956340E0
9.236583420E-1,2.201396823E-1,-8.853443712E-2,9.945169449E0,9.947999557E0
9.260232900E-1,2.033899277E-1,-8.614161611E-2,9.942776680E0,9.945229809E0
9.283882380E-1,2.105683982E-1,-8.135596663E-2,9.930811882E0,9.933377194E0
9.307531860E-1,2.249253243E-1,-6.221338734E-2,9.933204651E0,9.935945679E0
9.331181340E-1,2.057827413E-1,-7.657032460E-2,9.930811882E0,9.933238857E0
9.354830820E-1,2.153540403E-1,-8.374879509E-2,9.914062500E0,9.916754836E0
9.378480300E-1,2.033899277E-1,-7.896314561E-2,9.926026344E0,9.928423925E0
9.402129780E-1,2.009970993E-1,-7.417750359E-2,9.930811882E0,9.933122710E0
9.425779260E-1,2.177468538E-1,-7.896314561E-2,9.928419113E0,9.931120529E0
9.449428740E-1,2.201396823E-1,-6.221338734E-2,9.937990189E0,9.940622766E0
9.473078220E-1,1.962114573E-1,-5.264209956E-2,9.949954987E0,9.952028656E0
9.496727690E-1,2.249253243E-1,-8.135596663E-2,9.947562218E0,9.950437391E0
9.520377170E-1,2.153540403E-1,-6.939185411E-2,9.933204651E0,9.935781158E0
9.544026650E-1,2.153540403E-1,-6.699903309E-2,9.945169449E0,9.947726454E0
9.567676130E-1,2.081755698E-1,-7.417750359E-2,9.937990189E0,9.940447090E0
9.591325610E-1,2.009970993E-1,-7.657032460E-2,9.935597420E0,9.937925283E0
9.614975090E-1,2.105683982E-1,-6.460621208E-2,9.933204651E0,9.935646313E0
9.638624570E-1,2.297109663E-1,-7.657032460E-2,9.935597420E0,9.938547491E0
9.662274050E-1,2.153540403E-1,-8.374879509E-2,9.937990189E0,9.940676044E0
9.685923530E-1,2.201396823E-1,-7.178468257E-2,9.947562218E0,9.950256710E0
9.709573010E-1,2.225325108E-1,-7.657032460E-2,9.945169449E0,9.947953513E0
9.733222490E-1,2.177468538E-1,-6.939185411E-2,9.928419113E0,9.931049039E0
9.756871970E-1,2.057827413E-1,-6.221338734E-2,9.945169449E0,9.947492770E0
9.780521440E-1,2.177468538E-1,-6.939185411E-2,9.935597420E0,9.938225446E0
9.804170920E-1,2.129612118E-1,-7.657032460E-2,9.933204651E0,9.935782311E0
9.827820400E-1,2.057827413E-1,-6.939185411E-2,9.928419113E0,9.930793919E0
9.851469880E-1,2.201396823E-1,-6.699903309E-2,9.928419113E0,9.931085360E0
9.875119360E-1,2.249253243E-1,-8.614161611E-2,9.933204651E0,9.936124316E0
9.898768840E-1,2.297109663E-1,-7.657032460E-2,9.935597420E0,9.938547491E0
9.922418320E-1,2.201396823E-1,-7.417750359E-2,9.930811882E0,9.933528498E0
9.946067800E-1,2.177468538E-1,-6.460621208E-2,9.942776680E0,9.945370569E0
9.969717280E-1,2.273181528E-1,-6.699903309E-2,9.954740524E0,9.957561013E0
9.993366760E-1,2.057827413E-1,-1.028913707E-1,9.933204651E0,9.935868749E0
1.001701624E0,2.081755698E-1,-6.939185411E-2,9.930811882E0,9.933235975E0
1.004066572E0,2.249253243E-1,-8.135596663E-2,9.926026344E0,9.928907754E0
1.006431519E0,2.177468538E-1,-8.135596663E-2,9.935597420E0,9.938316184E0
1.008796467E0,2.201396823E-1,-8.374879509E-2,9.937990189E0,9.940780871E0
1.011161415E0,2.177468538E-1,-7.178468257E-2,9.947562218E0,9.950204059E0
1.013526363E0,2.129612118E-1,-8.135596663E-2,9.945169449E0,9.947781996E0
1.015891311E0,2.105683982E-1,-6.939185411E-2,9.945169449E0,9.947640406E0
1.018256259E0,2.105683982E-1,-7.178468257E-2,9.933204651E0,9.935695583E0
1.020621259E0,2.249253243E-1,-8.614161611E-2,9.923633575E0,9.926556055E0
1.022986207E0,2.129612118E-1,-7.417750359E-2,9.923633575E0,9.926195551E0
1.025351103E0,2.081755698E-1,-9.571290761E-2,9.921240807E0,9.923886193E0
1.027716103E0,2.129612118E-1,-8.614161611E-2,9.930811882E0,9.933468553E0
1.030081051E0,2.177468538E-1,-8.853443712E-2,9.933204651E0,9.935985441E0
1.032445947E0,2.177468538E-1,-1.004985496E-1,9.923633575E0,9.926530965E0
1.034810947E0,2.129612118E-1,-8.853443712E-2,9.937990189E0,9.940665964E0
1.037175894E0,2.009970993E-1,-8.614161611E-2,9.935597420E0,9.938003638E0
1.039540842E0,2.105683982E-1,-8.614161611E-2,9.942776680E0,9.945379205E0
1.041905790E0,2.177468538E-1,-8.614161611E-2,9.947562218E0,9.950317992E0
1.044270738E0,2.225325108E-1,-9.092725813E-2,9.947562218E0,9.950466449E0
1.046635686E0,2.081755698E-1,-7.896314561E-2,9.930811882E0,9.933307449E0
1.049000634E0,2.081755698E-1,-9.092725813E-2,9.935597420E0,9.938194047E0
1.051365582E0,2.321037948E-1,-6.939185411E-2,9.949954987E0,9.952903679E0
1.053730530E0,2.273181528E-1,-8.853443712E-2,9.945169449E0,9.948160999E0
1.056095478E0,2.105683982E-1,-8.614161611E-2,9.935597420E0,9.938201825E0
1.058460426E0,2.297109663E-1,-9.571290761E-2,9.942776680E0,9.945890418E0
1.060825374E0,2.201396823E-1,-1.028913707E-1,9.926026344E0,9.929000307E0
1.063190322E0,2.057827413E-1,-7.657032460E-2,9.930811882E0,9.933238857E0
1.065555269E0,2.105683982E-1,-6.939185411E-2,9.923633575E0,9.926109894E0
1.067920217E0,2.057827413E-1,-7.178468257E-2,9.937990189E0,9.940379699E0
1.070285165E0,2.105683982E-1,-8.614161611E-2,9.942776680E0,9.945379205E0
1.072650113E0,2.177468538E-1,-5.982056633E-2,9.947562218E0,9.950124937E0
1.075015061E0,2.153540403E-1,-6.221338734E-2,9.952347755E0,9.954871858E0
1.077380009E0,2.249253243E-1,-7.896314561E-2,9.935597420E0,9.938456755E0
1.079744957E0,2.081755698E-1,-8.135596663E-2,9.930811882E0,9.933326759E0
1.082109905E0,2.177468538E-1,-7.178468257E-2,9.933204651E0,9.935850309E0
1.084474853E0,2.105683982E-1,-8.135596663E-2,9.937990189E0,9.940553648E0
1.086839801E0,2.153540403E-1,-7.896314561E-2,9.937990189E0,9.940636877E0
1.089204749E0,2.153540403E-1,-8.614161611E-2,9.923633575E0,9.926343792E0
1.091569697E0,2.105683982E-1,-8.135596663E-2,9.930811882E0,9.933377194E0
1.093934644E0,1.938186288E-1,-8.853443712E-2,9.947562218E0,9.949844124E0
1.096299592E0,1.986042857E-1,-9.810572863E-2,9.940383911E0,9.942851739E0
1.098664540E0,2.033899277E-1,-8.135596663E-2,9.935597420E0,9.938011991E0
1.101029488E0,2.105683982E-1,-7.896314561E-2,9.928419113E0,9.930965729E0
1.103394436E0,2.033899277E-1,-7.178468257E-2,9.930811882E0,9.933153836E0
1.105759384E0,2.201396823E-1,-6.221338734E-2,9.947562218E0,9.950192262E0
1.108124332E0,2.081755698E-1,-8.853443712E-2,9.947562218E0,9.950134144E0
1.110489280E0,2.081755698E-1,-8.853443712E-2,9.945169449E0,9.947741994E0
1.112854228E0,2.153540403E-1,-6.699903309E-2,9.926026344E0,9.928588279E0
1.115219176E0,2.057827413E-1,-7.896314561E-2,9.918848038E0,9.921296695E0
1.117584124E0,2.033899277E-1,-7.896314561E-2,9.928419113E0,9.930816116E0
1.119949072E0,2.249253243E-1,-8.135596663E-2,9.942776680E0,9.945653237E0
1.122314019E0,2.321037948E-1,-6.699903309E-2,9.952347755E0,9.955279348E0
1.124678967E0,2.225325108E-1,-7.896314561E-2,9.942776680E0,9.945580124E0
1.127043915E0,2.105683982E-1,-8.374879509E-2,9.933204651E0,9.935789226E0
1.129408863E0,2.225325108E-1,-9.092725813E-2,9.945169449E0,9.948074379E0
1.131773863E0,2.105683982E-1,-8.374879509E-2,9.942776680E0,9.945358768E0
1.134138811E0,2.081755698E-1,-8.853443712E-2,9.945169449E0,9.947741994E0
1.136503759E0,2.009970993E-1,-7.896314561E-2,9.930811882E0,9.933159600E0
1.138868707E0,2.153540403E-1,-7.896314561E-2,9.926026344E0,9.928676222E0
1.141233603E0,2.297109663E-1,-7.657032460E-2,9.947562218E0,9.950508742E0
1.143598603E0,2.321037948E-1,-7.896314561E-2,9.947562218E0,9.950582969E0
1.145963551E0,2.177468538E-1,-7.417750359E-2,9.945169449E0,9.947829480E0
1.148328499E0,2.201396823E-1,-8.135596663E-2,9.930811882E0,9.933584696E0
1.150693447E0,2.081755698E-1,-9.332008660E-2,9.933204651E0,9.935824090E0
1.153058394E0,2.225325108E-1,-6.939185411E-2,9.937990189E0,9.940723562E0
1.155423342E0,2.225325108E-1,-7.896314561E-2,9.937990189E0,9.940794983E0
1.157788290E0,2.249253243E-1,-6.699903309E-2,9.940383911E0,9.943154056E0
1.160153238E0,2.201396823E-1,-6.699903309E-2,9.930811882E0,9.933477487E0
1.162518186E0,2.177468538E-1,-6.460621208E-2,9.933204651E0,9.935801039E0
1.164883134E0,2.057827413E-1,-7.657032460E-2,9.933204651E0,9.935631041E0
1.167248082E0,1.962114573E-1,-6.699903309E-2,9.918848038E0,9.921014777E0
1.169613030E0,2.105683982E-1,-7.178468257E-2,9.923633575E0,9.926126910E0
1.171977978E0,2.081755698E-1,-7.178468257E-2,9.940383911E0,9.942822658E0
1.174342926E0,2.153540403E-1,-9.810572863E-2,9.942776680E0,9.945592501E0
1.176707874E0,2.153540403E-1,-8.135596663E-2,9.947562218E0,9.950225637E0
1.179072822E0,2.321037948E-1,-6.939185411E-2,9.937990189E0,9.940942430E0
1.181437769E0,2.057827413E-1,-6.939185411E-2,9.935597420E0,9.937970510E0
1.183802717E0,2.129612118E-1,-7.178468257E-2,9.942776680E0,9.945316165E0
1.186167665E0,2.249253243E-1,-6.699903309E-2,9.933204651E0,9.935976797E0
1.188532613E0,2.201396823E-1,-5.982056633E-2,9.923633575E0,9.926255252E0
1.190897561E0,2.177468538E-1,-5.264209956E-2,9.928419113E0,9.930946127E0
1.193262509E0,2.201396823E-1,-7.178468257E-2,9.949954987E0,9.952648831E0
1.195627457E0,2.201396823E-1,-1.100698411E-1,9.940383911E0,9.943430452E0
1.197992405E0,2.201396823E-1,-8.614161611E-2,9.937990189E0,9.940801318E0
1.200357353E0,2.177468538E-1,-6.221338734E-2,9.926026344E0,9.928609328E0
1.202722301E0,2.153540403E-1,-7.896314561E-2,9.952347755E0,9.954990627E0
1.205087249E0,2.273181528E-1,-8.135596663E-2,9.937990189E0,9.940922559E0
1.207452197E0,2.249253243E-1,-9.092725813E-2,9.918848038E0,9.921814631E0
1.209817144E0,2.105683982E-1,-9.092725813E-2,9.933204651E0,9.935852326E0
1.212182092E0,2.153540403E-1,-7.657032460E-2,9.942776680E0,9.945403385E0
1.214547040E0,2.153540403E-1,-8.853443712E-2,9.937990189E0,9.940717514E0
1.216911988E0,2.057827413E-1,-9.092725813E-2,9.935597420E0,9.938144213E0
1.219276936E0,2.153540403E-1,-8.135596663E-2,9.921240807E0,9.923911290E0
1.221641884E0,2.201396823E-1,-7.657032460E-2,9.947562218E0,9.950292386E0
1.224006832E0,2.249253243E-1,-7.657032460E-2,9.947562218E0,9.950399414E0
1.226371780E0,2.153540403E-1,-6.221338734E-2,9.933204651E0,9.935733617E0
1.228736728E0,2.153540403E-1,-5.024927482E-2,9.947562218E0,9.950019921E0
1.231101676E0,2.129612118E-1,-5.742774159E-2,9.945169449E0,9.947615080E0
1.233466624E0,2.105683982E-1,-7.417750359E-2,9.945169449E0,9.947674940E0
1.235831572E0,2.153540403E-1,-7.657032460E-2,9.949954987E0,9.952579797E0
1.238196519E0,2.129612118E-1,-7.178468257E-2,9.954740524E0,9.957276958E0
1.240561467E0,2.129612118E-1,-7.657032460E-2,9.935597420E0,9.938174459E0
1.242926467E0,2.105683982E-1,-7.178468257E-2,9.923633575E0,9.926126910E0
1.245291415E0,2.105683982E-1,-8.135596663E-2,9.935597420E0,9.938161497E0
1.247656363E0,2.177468538E-1,-7.417750359E-2,9.952347755E0,9.955005868E0
1.250021311E0,2.225325108E-1,-7.657032460E-2,9.935597420E0,9.938384165E0
1.252386718E0,2.249253243E-1,-7.657032460E-2,9.930811882E0,9.933653862E0
1.254751666E0,2.105683982E-1,-8.135596663E-2,9.930811882E0,9.933377194E0
1.257116614E0,2.225325108E-1,-8.374879509E-2,9.940383911E0,9.943227186E0
1.259481562E0,2.033899277E-1,-8.614161611E-2,9.935597420E0,9.938052321E0
1.261846510E0,2.033899277E-1,-7.657032460E-2,9.926026344E0,9.928405182E0
1.264211458E0,1.938186288E-1,-7.896314561E-2,9.926026344E0,9.928232462E0
1.266576406E0,1.962114573E-1,-7.896314561E-2,9.921240807E0,9.923495012E0
1.268941353E0,2.201396823E-1,-7.657032460E-2,9.921240807E0,9.923978216E0
1.271306301E0,2.321037948E-1,-6.699903309E-2,9.926026344E0,9.928965708E0
1.273671249E0,2.249253243E-1,-6.221338734E-2,9.921240807E0,9.923985140E0
1.276036197E0,2.057827413E-1,-8.614161611E-2,9.933204651E0,9.935709414E0
1.278401145E0,2.081755698E-1,-8.614161611E-2,9.940383911E0,9.942936676E0
1.280766093E0,2.177468538E-1,-9.332008660E-2,9.949954987E0,9.952774817E0
1.283131041E0,2.273181528E-1,-6.699903309E-2,9.921240807E0,9.924070816E0
1.285495989E0,2.344966233E-1,-7.417750359E-2,9.921240807E0,9.924288897E0
1.287860937E0,2.297109663E-1,-7.178468257E-2,9.928419113E0,9.931335573E0
1.290225885E0,2.153540403E-1,-5.982056633E-2,9.933204651E0,9.935718922E0
1.292590833E0,2.392822653E-1,-5.982056633E-2,9.942776680E0,9.945835441E0
1.294955781E0,2.321037948E-1,-7.657032460E-2,9.926026344E0,9.929034906E0
1.297320728E0,2.057827413E-1,-9.092725813E-2,9.926026344E0,9.928575592E0
1.299685676E0,2.201396823E-1,-6.460621208E-2,9.945169449E0,9.947815379E0
1.302050624E0,2.081755698E-1,-7.417750359E-2,9.952347755E0,9.954801114E0
1.304415572E0,2.081755698E-1,-7.178468257E-2,9.940383911E0,9.942822658E0
1.306780520E0,2.129612118E-1,-7.178468257E-2,9.933204651E0,9.935746583E0
1.309145468E0,2.225325108E-1,-6.939185411E-2,9.933204651E0,9.935939341E0
1.311510416E0,2.273181528E-1,-5.982056633E-2,9.940383911E0,9.943162693E0
1.313875364E0,2.297109663E-1,-4.546362907E-2,9.930811882E0,9.933572303E0
1.316240312E0,2.153540403E-1,-5.264209956E-2,9.933204651E0,9.935678295E0
1.318605260E0,2.129612118E-1,-8.135596663E-2,9.937990189E0,9.940604622E0
1.320970208E0,2.153540403E-1,-8.135596663E-2,9.942776680E0,9.945441381E0
1.323335156E0,2.033899277E-1,-6.460621208E-2,9.933204651E0,9.935496770E0
1.325700103E0,2.297109663E-1,-5.503492057E-2,9.945169449E0,9.947974233E0
1.328065051E0,2.153540403E-1,-7.657032460E-2,9.952347755E0,9.954971935E0
1.330429999E0,2.201396823E-1,-7.657032460E-2,9.949954987E0,9.952684499E0
1.332794947E0,2.105683982E-1,-8.853443712E-2,9.945169449E0,9.947792356E0
1.335159895E0,2.225325108E-1,-9.332008660E-2,9.933204651E0,9.936135264E0
1.337524843E0,2.105683982E-1,-9.810572863E-2,9.933204651E0,9.935920613E0
1.339889791E0,2.009970993E-1,-8.853443712E-2,9.930811882E0,9.933240298E0
1.342254739E0,2.081755698E-1,-6.699903309E-2,9.935597420E0,9.938003926E0
1.344619687E0,2.129612118E-1,-9.332008660E-2,9.930811882E0,9.933533397E0
1.346984687E0,2.297109663E-1,-7.417750359E-2,9.940383911E0,9.943314424E0
1.349349635E0,2.225325108E-1,-8.135596663E-2,9.935597420E0,9.938422189E0
1.351714531E0,2.105683982E-1,-9.092725813E-2,9.945169449E0,9.947813940E0
1.354079478E0,1.842473447E-1,-9.092725813E-2,9.933204651E0,9.935329360E0
1.356444478E0,2.105683982E-1,-7.896314561E-2,9.933204651E0,9.935750040E0
1.358809426E0,2.129612118E-1,-7.178468257E-2,9.945169449E0,9.947708323E0
1.361174322E0,2.177468538E-1,-8.374879509E-2,9.937990189E0,9.940728170E0
1.363539322E0,2.129612118E-1,-7.417750359E-2,9.940383911E0,9.942941571E0
1.365904270E0,2.177468538E-1,-6.699903309E-2,9.947562218E0,9.950170684E0
1.368269218E0,2.129612118E-1,-7.896314561E-2,9.945169449E0,9.947762714E0
1.370634166E0,2.129612118E-1,-6.221338734E-2,9.940383911E0,9.942859512E0
1.372999114E0,2.153540403E-1,-6.460621208E-2,9.930811882E0,9.933356732E0
1.375364062E0,2.249253243E-1,-8.853443712E-2,9.949954987E0,9.952890735E0
1.377729010E0,2.273181528E-1,-8.374879509E-2,9.933204651E0,9.936158314E0
1.380093958E0,2.105683982E-1,-6.939185411E-2,9.928419113E0,9.930894238E0
1.382458906E0,2.153540403E-1,-6.699903309E-2,9.930811882E0,9.933372583E0
1.384823853E0,2.129612118E-1,-6.221338734E-2,9.926026344E0,9.928505526E0
1.387188801E0,2.105683982E-1,-5.742774159E-2,9.930811882E0,9.933210037E0
1.389553749E0,2.009970993E-1,-7.417750359E-2,9.949954987E0,9.952261370E0
1.391918697E0,2.033899277E-1,-8.135596663E-2,9.945169449E0,9.947581697E0
1.394283645E0,2.081755698E-1,-8.614161611E-2,9.947562218E0,9.950113141E0
1.396648593E0,2.153540403E-1,-8.374879509E-2,9.947562218E0,9.950245489E0
1.399013541E0,2.033899277E-1,-7.896314561E-2,9.940383911E0,9.942778029E0
1.401378489E0,2.201396823E-1,-8.374879509E-2,9.930811882E0,9.933604581E0
1.403743437E0,2.081755698E-1,-6.939185411E-2,9.930811882E0,9.933235975E0
1.406108385E0,1.962114573E-1,-6.939185411E-2,9.933204651E0,9.935384683E0
1.408473333E0,1.962114573E-1,-7.896314561E-2,9.930811882E0,9.933063916E0
1.410838281E0,2.009970993E-1,-6.460621208E-2,9.940383911E0,9.942625714E0
1.413203228E0,1.986042857E-1,-6.939185411E-2,9.940383911E0,9.942609878E0
1.415568176E0,2.105683982E-1,-7.896314561E-2,9.933204651E0,9.935750040E0
1.417933124E0,2.105683982E-1,-7.178468257E-2,9.930811882E0,9.933303415E0
1.420298072E0,2.225325108E-1,-8.374879509E-2,9.940383911E0,9.943227186E0
1.422663020E0,2.249253243E-1,-8.374879509E-2,9.930811882E0,9.933711789E0
1.425027968E0,2.105683982E-1,-8.614161611E-2,9.930811882E0,9.933417542E0
1.427392916E0,2.081755698E-1,-8.614161611E-2,9.940383911E0,9.942936676E0
1.429757864E0,2.057827413E-1,-7.178468257E-2,9.930811882E0,9.933203120E0
1.432122812E0,2.081755698E-1,-6.460621208E-2,9.942776680E0,9.945165616E0
1.434487760E0,2.225325108E-1,-6.460621208E-2,9.937990189E0,9.940691307E0
1.436852708E0,2.201396823E-1,-5.264209956E-2,9.926026344E0,9.928606733E0
1.439217656E0,2.057827413E-1,-6.221338734E-2,9.930811882E0,9.933138561E0
1.441582603E0,2.033899277E-1,-7.417750359E-2,9.935597420E0,9.937955819E0
1.443947551E0,2.201396823E-1,-6.699903309E-2,9.940383911E0,9.943046950E0
1.446312499E0,2.321037948E-1,-8.135596663E-2,9.942776680E0,9.945818170E0
1.448677447E0,2.273181528E-1,-7.896314561E-2,9.940383911E0,9.943296286E0
1.451042395E0,2.105683982E-1,-7.178468257E-2,9.945169449E0,9.947657385E0
1.453407343E0,2.129612118E-1,-6.699903309E-2,9.928419113E0,9.930928830E0
1.455772343E0,2.033899277E-1,-6.699903309E-2,9.926026344E0,9.928335979E0
1.458137291E0,2.105683982E-1,-6.939185411E-2,9.928419113E0,9.930894238E0
1.460502239E0,2.225325108E-1,-7.657032460E-2,9.940383911E0,9.943169315E0
1.462867187E0,2.177468538E-1,-8.374879509E-2,9.945169449E0,9.947905454E0
1.465232135E0,2.297109663E-1,-9.092725813E-2,9.937990189E0,9.941060501E0
1.467597083E0,2.273181528E-1,-8.135596663E-2,9.926026344E0,9.928962248E0
1.469962031E0,2.057827413E-1,-6.939185411E-2,9.937990189E0,9.940362707E0
1.472326978E0,2.057827413E-1,-6.939185411E-2,9.933204651E0,9.935578312E0
1.474691926E0,2.057827413E-1,-9.092725813E-2,9.942776680E0,9.945321634E0
1.477056874E0,2.129612118E-1,-7.657032460E-2,9.935597420E0,9.938174459E0
1.479421822E0,2.033899277E-1,-7.417750359E-2,9.930811882E0,9.933171417E0
1.481786770E0,2.057827413E-1,-6.699903309E-2,9.935597420E0,9.937954090E0
1.484151718E0,2.105683982E-1,-7.896314561E-2,9.947562218E0,9.950103934E0
1.486516666E0,2.153540403E-1,-9.571290761E-2,9.933204651E0,9.935999847E0
1.488881614E0,2.225325108E-1,-9.571290761E-2,9.942776680E0,9.945727213E0
1.491246562E0,2.057827413E-1,-8.135596663E-2,9.947562218E0,9.950023086E0
1.493611510E0,2.153540403E-1,-6.460621208E-2,9.954740524E0,9.957279258E0
1.495976458E0,2.081755698E-1,-6.699903309E-2,9.935597420E0,9.938003926E0
1.498341406E0,2.057827413E-1,-7.657032460E-2,9.930811882E0,9.933238857E0
1.500706353E0,2.177468538E-1,-5.264209956E-2,9.942776680E0,9.945300045E0
1.503071301E0,2.368894368E-1,-7.417750359E-2,9.940383911E0,9.943482851E0
1.505436249E0,2.416750938E-1,-1.028913707E-1,9.952347755E0,9.955813343E0
1.507801197E0,2.249253243E-1,-8.853443712E-2,9.947562218E0,9.950498672E0
1.510166145E0,2.177468538E-1,-8.135596663E-2,9.940383911E0,9.943101367E0
1.512531093E0,2.177468538E-1,-8.135596663E-2,9.937990189E0,9.940708298E0
1.514896041E0,2.225325108E-1,-9.092725813E-2,9.928419113E0,9.931328943E0
1.517260989E0,2.129612118E-1,-8.853443712E-2,9.933204651E0,9.935881715E0
1.519625937E0,2.249253243E-1,-6.221338734E-2,9.937990189E0,9.940729898E0
1.521990885E0,2.249253243E-1,-8.853443712E-2,9.940383911E0,9.943322485E0
1.524355833E0,2.392822653E-1,-6.460621208E-2,9.942776680E0,9.945865376E0
1.526720781E0,2.416750938E-1,-7.178468257E-2,9.923633575E0,9.926835509E0
1.529085728E0,2.273181528E-1,-7.657032460E-2,9.930811882E0,9.933708330E0
1.531450676E0,2.057827413E-1,-6.460621208E-2,9.930811882E0,9.933153836E0
1.533815624E0,2.129612118E-1,-5.742774159E-2,9.942776680E0,9.945222900E0
1.536180572E0,2.129612118E-1,-4.785645381E-2,9.918848038E0,9.921249373E0
1.538545520E0,2.105683982E-1,-5.982056633E-2,9.923633575E0,9.926047597E0
1.540910468E0,2.344966233E-1,-7.657032460E-2,9.937990189E0,9.941051286E0
1.543275416E0,2.201396823E-1,-8.853443712E-2,9.930811882E0,9.933646081E0
1.545640364E0,2.057827413E-1,-8.853443712E-2,9.930811882E0,9.933338287E0
1.548005312E0,1.986042857E-1,-7.896314561E-2,9.945169449E0,9.947465718E0
1.550370260E0,2.153540403E-1,-7.896314561E-2,9.928419113E0,9.931068353E0
1.552735208E0,2.153540403E-1,-6.699903309E-2,9.918848038E0,9.921411826E0
1.555100156E0,2.081755698E-1,-9.092725813E-2,9.935597420E0,9.938194047E0
1.557465156E0,2.225325108E-1,-8.135596663E-2,9.935597420E0,9.938422189E0
1.559830051E0,2.201396823E-1,-8.135596663E-2,9.937990189E0,9.940761000E0
1.562194999E0,2.201396823E-1,-7.657032460E-2,9.949954987E0,9.952684499E0
1.564559947E0,2.368894368E-1,-8.135596663E-2,9.923633575E0,9.926793981E0
1.566924895E0,2.105683982E-1,-8.614161611E-2,9.933204651E0,9.935809683E0
1.569289843E0,2.081755698E-1,-8.374879509E-2,9.914062500E0,9.916601544E0
1.571654843E0,2.321037948E-1,-7.896314561E-2,9.926026344E0,9.929053648E0
1.574019791E0,2.273181528E-1,-8.614161611E-2,9.923633575E0,9.926610563E0
1.576384739E0,2.177468538E-1,-7.896314561E-2,9.940383911E0,9.943082076E0
1.578749687E0,1.986042857E-1,-8.135596663E-2,9.935597420E0,9.937915201E0
1.581114635E0,1.986042857E-1,-6.699903309E-2,9.930811882E0,9.933023566E0
1.583479583E0,2.057827413E-1,-7.896314561E-2,9.937990189E0,9.940434131E0
1.585844531E0,2.081755698E-1,-8.135596663E-2,9.930811882E0,9.933326759E0
1.588209478E0,2.081755698E-1,-9.092725813E-2,9.933204651E0,9.935801904E0
1.590574426E0,2.201396823E-1,-7.657032460E-2,9.933204651E0,9.935938764E0
1.592939374E0,2.033899277E-1,-6.699903309E-2,9.926026344E0,9.928335979E0
1.595304322E0,2.177468538E-1,-6.460621208E-2,9.914062500E0,9.916663900E0
1.597669270E0,2.201396823E-1,-8.374879509E-2,9.942776680E0,9.945566020E0
1.600034218E0,2.129612118E-1,-8.614161611E-2,9.935597420E0,9.938252811E0
1.602399166E0,2.033899277E-1,-7.657032460E-2,9.933204651E0,9.935581770E0
1.604764114E0,2.129612118E-1,-5.982056633E-2,9.942776680E0,9.945237005E0
1.607129062E0,2.297109663E-1,-7.417750359E-2,9.947562218E0,9.950490616E0
1.609494010E0,2.273181528E-1,-7.417750359E-2,9.947562218E0,9.950435665E0
1.611858958E0,2.057827413E-1,-8.374879509E-2,9.940383911E0,9.942866423E0
1.614223906E0,2.129612118E-1,-8.614161611E-2,9.940383911E0,9.943038024E0
1.616588853E0,2.249253243E-1,-7.178468257E-2,9.930811882E0,9.933618126E0
1.618953801E0,2.177468538E-1,-5.982056633E-2,9.942776680E0,9.945340633E0
1.621318749E0,1.962114573E-1,-8.374879509E-2,9.933204651E0,9.935495329E0
1.623683697E0,1.962114573E-1,-1.004985496E-1,9.921240807E0,9.923689739E0
1.626048645E0,2.009970993E-1,-7.896314561E-2,9.918848038E0,9.921198587E0
1.628413593E0,2.177468538E-1,-8.135596663E-2,9.928419113E0,9.931139843E0
1.630778541E0,2.177468538E-1,-6.221338734E-2,9.947562218E0,9.950139611E0
1.633143489E0,2.129612118E-1,-8.614161611E-2,9.952347755E0,9.954998679E0
1.635508437E0,2.153540403E-1,-8.135596663E-2,9.947562218E0,9.950225637E0
1.637873385E0,2.081755698E-1,-7.657032460E-2,9.942776680E0,9.945250534E0
1.640238333E0,2.033899277E-1,-8.135596663E-2,9.933204651E0,9.935619804E0
1.642603281E0,2.177468538E-1,-7.417750359E-2,9.921240807E0,9.923907252E0
1.644968228E0,2.177468538E-1,-8.135596663E-2,9.914062500E0,9.916787168E0
1.647333176E0,2.273181528E-1,-7.657032460E-2,9.923633575E0,9.926532118E0
1.649698124E0,2.177468538E-1,-6.939185411E-2,9.935597420E0,9.938225446E0
1.652063072E0,2.129612118E-1,-5.264209956E-2,9.947562218E0,9.949980791E0
1.654428020E0,2.129612118E-1,-6.221338734E-2,9.940383911E0,9.942859512E0
1.656792968E0,2.081755698E-1,-5.024927482E-2,9.940383911E0,9.942690499E0
1.659157916E0,2.057827413E-1,-5.982056633E-2,9.935597420E0,9.937908287E0
1.661522864E0,2.081755698E-1,-5.982056633E-2,9.933204651E0,9.935565923E0
1.663887812E0,1.962114573E-1,-5.264209956E-2,9.923633575E0,9.925712743E0
1.666252760E0,2.057827413E-1,-6.699903309E-2,9.918848038E0,9.921208687E0
1.668617708E0,2.153540403E-1,-6.939185411E-2,9.926026344E0,9.928604715E0
1.670982708E0,2.105683982E-1,-7.417750359E-2,9.930811882E0,9.933320995E0
1.673347603E0,2.153540403E-1,-7.178468257E-2,9.940383911E0,9.942975546E0
1.675712551E0,2.105683982E-1,-1.028913707E-1,9.940383911E0,9.943146282E0
1.678077499E0,2.153540403E-1,-8.614161611E-2,9.928419113E0,9.931128024E0
1.680442499E0,2.249253243E-1,-6.460621208E-2,9.935597420E0,9.938353055E0
1.682807447E0,2.177468538E-1,-7.178468257E-2,9.935597420E0,9.938242441E0
1.685172395E0,2.033899277E-1,-5.742774159E-2,9.933204651E0,9.935452684E0
1.687537343E0,2.249253243E-1,-7.657032460E-2,9.940383911E0,9.943223155E0
1.689902291E0,2.368894368E-1,-7.896314561E-2,9.933204651E0,9.936342708E0
1.692267239E0,2.273181528E-1,-8.853443712E-2,9.947562218E0,9.950553048E0
1.694632187E0,2.153540403E-1,-6.939185411E-2,9.949954987E0,9.952527158E0
1.696997135E0,2.201396823E-1,-6.939185411E-2,9.940383911E0,9.943063361E0
1.699362083E0,2.081755698E-1,-8.374879509E-2,9.930811882E0,9.933346645E0
1.701727031E0,2.105683982E-1,-7.178468257E-2,9.923633575E0,9.926126910E0
1.704091978E0,2.201396823E-1,-7.178468257E-2,9.935597420E0,9.938295156E0
1.706456926E0,2.057827413E-1,-6.939185411E-2,9.945169449E0,9.947540255E0
1.708821874E0,2.033899277E-1,-6.221338734E-2,9.940383911E0,9.942659115E0
1.711186822E0,2.177468538E-1,-7.657032460E-2,9.933204651E0,9.935886037E0
1.713551770E0,2.249253243E-1,-5.024927482E-2,9.935597420E0,9.938270095E0
1.715916718E0,2.033899277E-1,-5.982056633E-2,9.935597420E0,9.937859027E0
1.718281666E0,1.842473447E-1,-4.785645381E-2,9.949954987E0,9.951775799E0
1.720646614E0,2.009970993E-1,-6.939185411E-2,9.952347755E0,9.954619074E0
1.723011562E0,2.105683982E-1,-6.699903309E-2,9.921240807E0,9.923701278E0
1.725376510E0,2.081755698E-1,-7.417750359E-2,9.926026344E0,9.928486207E0
1.727741458E0,2.225325108E-1,-6.460621208E-2,9.935597420E0,9.938299189E0
1.730106406E0,2.033899277E-1,-6.699903309E-2,9.937990189E0,9.940297044E0
1.732471353E0,2.153540403E-1,-5.982056633E-2,9.945169449E0,9.947680696E0
1.734836301E0,1.938186288E-1,-6.221338734E-2,9.930811882E0,9.932897906E0
1.737201249E0,2.057827413E-1,-7.896314561E-2,9.942776680E0,9.945219446E0
1.739566197E0,2.153540403E-1,-7.896314561E-2,9.928419113E0,9.931068353E0
1.741931145E0,2.129612118E-1,-9.810572863E-2,9.940383911E0,9.943148873E0
1.744296093E0,2.249253243E-1,-8.374879509E-2,9.935597420E0,9.938495930E0
1.746661041E0,2.297109663E-1,-6.460621208E-2,9.930811882E0,9.933678358E0
1.749025989E0,2.273181528E-1,-7.178468257E-2,9.926026344E0,9.928888436E0
1.751390937E0,2.201396823E-1,-9.092725813E-2,9.945169449E0,9.948021141E0
1.753755885E0,2.153540403E-1,-9.092725813E-2,9.952347755E0,9.955092715E0
1.756120833E0,2.009970993E-1,-8.135596663E-2,9.930811882E0,9.933178910E0
1.758485781E0,2.081755698E-1,-6.699903309E-2,9.930811882E0,9.933219547E0
1.760850728E0,2.129612118E-1,-8.374879509E-2,9.933204651E0,9.935840225E0
1.763215676E0,2.129612118E-1,-7.657032460E-2,9.949954987E0,9.952528308E0
1.765580624E0,2.105683982E-1,-5.982056633E-2,9.937990189E0,9.940400723E0
1.767945572E0,2.081755698E-1,-6.699903309E-2,9.940383911E0,9.942789259E0
1.770310520E0,2.153540403E-1,-7.178468257E-2,9.949954987E0,9.952544129E0
1.772675468E0,2.057827413E-1,-9.332008660E-2,9.942776680E0,9.945343799E0
1.775040416E0,2.153540403E-1,-8.374879509E-2,9.928419113E0,9.931107557E0
1.777405364E0,2.081755698E-1,-7.417750359E-2,9.937990189E0,9.940447090E0
1.779770312E0,2.057827413E-1,-8.374879509E-2,9.947562218E0,9.950042938E0
1.782135260E0,2.105683982E-1,-7.657032460E-2,9.945169449E0,9.947693071E0
1.784500208E0,2.081755698E-1,-8.374879509E-2,9.947562218E0,9.950092713E0
1.786865208E0,2.129612118E-1,-7.178468257E-2,9.940383911E0,9.942924008E0
1.789230103E0,2.201396823E-1,-7.178468257E-2,9.926026344E0,9.928726681E0
1.791595103E0,2.225325108E-1,-7.417750359E-2,9.918848038E0,9.921621310E0
1.793960051E0,2.273181528E-1,-5.982056633E-2,9.928419113E0,9.931201243E0
1.796324999E0,2.201396823E-1,-5.742774159E-2,9.947562218E0,9.950163491E0
1.798689947E0,2.105683982E-1,-5.982056633E-2,9.940383911E0,9.942793865E0
1.801054895E0,2.153540403E-1,-6.939185411E-2,9.942776680E0,9.945350708E0
1.803419843E0,2.105683982E-1,-7.178468257E-2,9.935597420E0,9.938087753E0
1.805784791E0,1.962114573E-1,-6.939185411E-2,9.933204651E0,9.935384683E0
1.808149739E0,2.081755698E-1,-7.896314561E-2,9.923633575E0,9.926130947E0
1.810514687E0,2.105683982E-1,-7.178468257E-2,9.923633575E0,9.926126910E0
1.812879635E0,2.273181528E-1,-6.699903309E-2,9.935597420E0,9.938423341E0
1.815244583E0,2.249253243E-1,-7.896314561E-2,9.942776680E0,9.945633951E0
1.817609531E0,2.081755698E-1,-7.657032460E-2,9.935597420E0,9.938073061E0
1.819974478E0,2.105683982E-1,-8.853443712E-2,9.942776680E0,9.945400218E0
1.822339426E0,2.177468538E-1,-8.853443712E-2,9.942776680E0,9.945554793E0
1.824704374E0,2.081755698E-1,-6.939185411E-2,9.926026344E0,9.928451606E0
1.827069322E0,2.105683982E-1,-6.221338734E-2,9.933204651E0,9.935631041E0
1.829434270E0,2.033899277E-1,-7.178468257E-2,9.935597420E0,9.937938246E0
1.831799218E0,2.153540403E-1,-8.374879509E-2,9.930811882E0,9.933499678E0
1.834164166E0,2.105683982E-1,-7.417750359E-2,9.942776680E0,9.945282774E0
1.836529114E0,2.105683982E-1,-7.417750359E-2,9.935597420E0,9.938105324E0
1.838894062E0,1.890329868E-1,-6.939185411E-2,9.940383911E0,9.942423296E0
1.841259010E0,2.009970993E-1,-8.135596663E-2,9.933204651E0,9.935571109E0
1.843623958E0,2.105683982E-1,-8.614161611E-2,9.945169449E0,9.947771348E0
1.845988906E0,2.153540403E-1,-6.939185411E-2,9.940383911E0,9.942958558E0
1.848353853E0,2.201396823E-1,-6.939185411E-2,9.930811882E0,9.933493914E0
1.850718801E0,2.249253243E-1,-5.742774159E-2,9.930811882E0,9.933524751E0
1.853083749E0,2.129612118E-1,-6.699903309E-2,9.942776680E0,9.945282774E0
1.855448697E0,2.129612118E-1,-9.571290761E-2,9.940383911E0,9.943125552E0
1.857813645E0,2.129612118E-1,-8.135596663E-2,9.935597420E0,9.938212483E0
1.860178593E0,2.057827413E-1,-7.178468257E-2,9.933204651E0,9.935595312E0
1.862543541E0,2.105683982E-1,-6.460621208E-2,9.923633575E0,9.926077592E0
1.864908489E0,2.033899277E-1,-7.178468257E-2,9.937990189E0,9.940330452E0
1.867273437E0,2.057827413E-1,-7.178468257E-2,9.937990189E0,9.940379699E0
1.869638385E0,2.033899277E-1,-7.178468257E-2,9.945169449E0,9.947508023E0
1.872003333E0,2.177468538E-1,-6.699903309E-2,9.952347755E0,9.954954968E0
1.874368281E0,2.057827413E-1,-6.460621208E-2,9.952347755E0,9.954684643E0
1.876733228E0,2.129612118E-1,-6.939185411E-2,9.942776680E0,9.945299182E0
1.879098176E0,2.153540403E-1,-6.460621208E-2,9.935597420E0,9.938141044E0
1.881463124E0,2.177468538E-1,-7.417750359E-2,9.911669731E0,9.914338750E0
1.883828072E0,2.201396823E-1,-9.092725813E-2,9.921240807E0,9.924099374E0
1.886193020E0,2.297109663E-1,-9.092725813E-2,9.928419113E0,9.931492384E0
1.888557968E0,2.273181528E-1,-9.571290761E-2,9.935597420E0,9.938658390E0
1.890922916E0,2.225325108E-1,-8.135596663E-2,9.947562218E0,9.950383590E0
1.893287864E0,2.177468538E-1,-6.221338734E-2,9.945169449E0,9.947747462E0
1.895652812E0,2.105683982E-1,-5.742774159E-2,9.930811882E0,9.933210037E0
1.898017760E0,2.033899277E-1,-6.699903309E-2,9.921240807E0,9.923551556E0
1.900382708E0,2.297109663E-1,-6.699903309E-2,9.933204651E0,9.936086284E0
1.902747708E0,2.177468538E-1,-6.699903309E-2,9.937990189E0,9.940601167E0
1.905112656E0,2.153540403E-1,-6.460621208E-2,9.921240807E0,9.923788111E0
1.907477603E0,2.177468538E-1,-6.699903309E-2,9.923633575E0,9.926248330E0
1.909842551E0,2.129612118E-1,-5.742774159E-2,9.947562218E0,9.950007261E0
1.912207499E0,2.249253243E-1,-5.024927482E-2,9.935597420E0,9.938270095E0
1.914572447E0,1.914258152E-1,-7.657032460E-2,9.918848038E0,9.920990538E0
1.916937395E0,1.938186288E-1,-8.135596663E-2,9.921240807E0,9.923467317E0
1.919302343E0,2.057827413E-1,-7.896314561E-2,9.928419113E0,9.930865411E0
1.921667291E0,2.153540403E-1,-6.699903309E-2,9.930811882E0,9.933372583E0
1.924032239E0,2.129612118E-1,-7.657032460E-2,9.928419113E0,9.930998015E0
1.926397187E0,2.273181528E-1,-7.417750359E-2,9.928419113E0,9.931298099E0
1.928762135E0,2.105683982E-1,-6.460621208E-2,9.921240807E0,9.923685412E0
1.931127083E0,2.105683982E-1,-7.657032460E-2,9.935597420E0,9.938123472E0
1.933492031E0,2.129612118E-1,-7.657032460E-2,9.930811882E0,9.933390163E0
1.935856978E0,2.081755698E-1,-6.939185411E-2,9.947562218E0,9.949982230E0
1.938221926E0,2.009970993E-1,-7.896314561E-2,9.945169449E0,9.947513779E0
1.940586874E0,2.177468538E-1,-8.135596663E-2,9.940383911E0,9.943101367E0
1.942951822E0,2.225325108E-1,-8.135596663E-2,9.935597420E0,9.938422189E0
1.945316770E0,2.153540403E-1,-6.460621208E-2,9.923633575E0,9.926180266E0
1.947681718E0,2.273181528E-1,-6.939185411E-2,9.926026344E0,9.928871424E0
1.950046666E0,2.225325108E-1,-8.853443712E-2,9.930811882E0,9.933699397E0
1.952411614E0,2.201396823E-1,-8.135596663E-2,9.926026344E0,9.928800495E0
1.954776562E0,2.201396823E-1,-8.614161611E-2,9.937990189E0,9.940801318E0
1.957141510E0,2.153540403E-1,-5.982056633E-2,9.935597420E0,9.938111086E0
1.959506458E0,2.177468538E-1,-6.221338734E-2,9.945169449E0,9.947747462E0
1.961871406E0,2.177468538E-1,-7.417750359E-2,9.959526062E0,9.962182260E0
1.964236353E0,2.321037948E-1,-8.374879509E-2,9.957133293E0,9.960190232E0
1.966601301E0,2.273181528E-1,-8.614161611E-2,9.937990189E0,9.940962876E0
1.968966249E0,2.249253243E-1,-8.374879509E-2,9.933204651E0,9.936103859E0
1.971331197E0,1.986042857E-1,-7.657032460E-2,9.942776680E0,9.945054790E0
1.973696145E0,2.105683982E-1,-8.135596663E-2,9.945169449E0,9.947731058E0
1.976061093E0,2.057827413E-1,-8.614161611E-2,9.933204651E0,9.935709414E0
1.978426041E0,2.177468538E-1,-7.417750359E-2,9.928419113E0,9.931083631E0
1.980790989E0,2.057827413E-1,-7.417750359E-2,9.923633575E0,9.926044135E0
1.983155937E0,2.009970993E-1,-6.939185411E-2,9.930811882E0,9.933088125E0
1.985520885E0,2.105683982E-1,-6.939185411E-2,9.945169449E0,9.947640406E0
1.987885833E0,2.201396823E-1,-7.896314561E-2,9.942776680E0,9.945526872E0
1.990250781E0,2.105683982E-1,-7.896314561E-2,9.949954987E0,9.952496092E0
1.992615728E0,2.177468538E-1,-6.460621208E-2,9.947562218E0,9.950154860E0
1.994980676E0,2.225325108E-1,-7.417750359E-2,9.923633575E0,9.926405511E0
1.997345624E0,2.225325108E-1,-7.178468257E-2,9.940383911E0,9.943133614E0
1.999710572E0,2.177468538E-1,-7.896314561E-2,9.947562218E0,9.950258436E0
2.002075520E0,2.009970993E-1,-7.896314561E-2,9.947562218E0,9.949905984E0
2.004440468E0,2.129612118E-1,-6.699903309E-2,9.940383911E0,9.942890608E0
2.006805416E0,2.105683982E-1,-8.135596663E-2,9.942776680E0,9.945338906E0
2.009170416E0,2.129612118E-1,-6.939185411E-2,9.933204651E0,9.935729583E0
2.011535364E0,2.057827413E-1,-7.896314561E-2,9.937990189E0,9.940434131E0
2.013900312E0,2.201396823E-1,-8.374879509E-2,9.933204651E0,9.935996678E0
2.016265260E0,2.392822653E-1,-7.178468257E-2,9.916455269E0,9.919601511E0
2.018630208E0,2.225325108E-1,-7.657032460E-2,9.926026344E0,9.928815776E0
2.020995156E0,2.249253243E-1,-8.614161611E-2,9.926026344E0,9.928948120E0
2.023360103E0,2.129612118E-1,-9.092725813E-2,9.926026344E0,9.928726969E0
2.025725051E0,2.057827413E-1,-7.657032460E-2,9.921240807E0,9.923670122E0
2.028089999E0,1.962114573E-1,-8.853443712E-2,9.918848038E0,9.921183583E0
2.030454947E0,1.962114573E-1,-7.178468257E-2,9.930811882E0,9.933009444E0
2.032819895E0,2.177468538E-1,-8.374879509E-2,9.930811882E0,9.933551842E0
2.035184843E0,2.249253243E-1,-8.374879509E-2,9.945169449E0,9.948065170E0
2.037549791E0,2.105683982E-1,-8.135596663E-2,9.947562218E0,9.950123211E0
2.039914739E0,2.153540403E-1,-7.178468257E-2,9.947562218E0,9.950151983E0
2.042279687E0,2.225325108E-1,-8.374879509E-2,9.933204651E0,9.936049981E0
2.044644635E0,2.177468538E-1,-7.178468257E-2,9.923633575E0,9.926281785E0
2.047009583E0,2.177468538E-1,-7.657032460E-2,9.933204651E0,9.935886037E0
2.049374531E0,2.177468538E-1,-7.657032460E-2,9.930811882E0,9.933493914E0
2.051739478E0,2.153540403E-1,-9.571290761E-2,9.930811882E0,9.933607751E0
2.054104426E0,2.273181528E-1,-9.092725813E-2,9.930811882E0,9.933829370E0
2.056469374E0,2.392822653E-1,-8.374879509E-2,9.952347755E0,9.955576111E0
2.058834322E0,2.153540403E-1,-7.417750359E-2,9.940383911E0,9.942993109E0
2.061199270E0,2.081755698E-1,-6.939185411E-2,9.926026344E0,9.928451606E0
2.063564218E0,2.201396823E-1,-7.657032460E-2,9.926026344E0,9.928762435E0
2.065929166E0,2.201396823E-1,-7.178468257E-2,9.914062500E0,9.916766095E0
2.068294114E0,2.081755698E-1,-7.178468257E-2,9.935597420E0,9.938037341E0
2.070659062E0,2.225325108E-1,-5.742774159E-2,9.933204651E0,9.935862987E0
2.073024010E0,2.153540403E-1,-6.221338734E-2,9.949954987E0,9.952479696E0
2.075388958E0,2.368894368E-1,-7.178468257E-2,9.954740524E0,9.957817459E0
2.077753906E0,2.009970993E-1,-5.742774159E-2,9.935597420E0,9.937796228E0
2.080118853E0,1.914258152E-1,-6.460621208E-2,9.952347755E0,9.954398206E0
2.082483801E0,2.249253243E-1,-8.374879509E-2,9.930811882E0,9.933711789E0
2.084848749E0,2.153540403E-1,-9.092725813E-2,9.926026344E0,9.928778581E0
2.087213697E0,2.225325108E-1,-8.614161611E-2,9.923633575E0,9.926502125E0
2.089578645E0,2.153540403E-1,-8.374879509E-2,9.940383911E0,9.943069120E0
2.091943593E0,2.129612118E-1,-8.614161611E-2,9.923633575E0,9.926292168E0
2.094308541E0,2.129612118E-1,-6.699903309E-2,9.930811882E0,9.933320995E0
2.096673489E0,2.249253243E-1,-6.699903309E-2,9.937990189E0,9.940761000E0
2.099038437E0,2.297109663E-1,-8.135596663E-2,9.940383911E0,9.943370566E0
2.101403385E0,2.201396823E-1,-7.178468257E-2,9.947562218E0,9.950256710E0
2.103768333E0,2.201396823E-1,-7.417750359E-2,9.957133293E0,9.959842730E0
2.106133281E0,2.225325108E-1,-6.699903309E-2,9.952347755E0,9.955060795E0
2.108498228E0,2.177468538E-1,-7.178468257E-2,9.949954987E0,9.952596192E0
2.110863176E0,2.105683982E-1,-5.742774159E-2,9.937990189E0,9.940386611E0
2.113228124E0,2.129612118E-1,-6.460621208E-2,9.930811882E0,9.933305144E0
2.115593072E0,2.177468538E-1,-6.460621208E-2,9.926026344E0,9.928624610E0
2.117958072E0,2.129612118E-1,-7.178468257E-2,9.930811882E0,9.933354426E0
2.120323020E0,2.057827413E-1,-7.417750359E-2,9.935597420E0,9.938005078E0
2.122687968E0,2.129612118E-1,-7.657032460E-2,9.935597420E0,9.938174459E0
2.125052916E0,2.081755698E-1,-6.221338734E-2,9.923633575E0,9.926011833E0
2.127417864E0,2.153540403E-1,-7.178468257E-2,9.942776680E0,9.945367691E0
2.129782812E0,2.225325108E-1,-8.135596663E-2,9.957133293E0,9.959951954E0
2.132147760E0,2.129612118E-1,-9.810572863E-2,9.940383911E0,9.943148873E0
2.134512708E0,2.297109663E-1,-8.614161611E-2,9.935597420E0,9.938625840E0
2.136877656E0,2.321037948E-1,-7.178468257E-2,9.928419113E0,9.931391207E0
2.139242603E0,2.225325108E-1,-6.460621208E-2,9.926026344E0,9.928730718E0
2.141607551E0,2.105683982E-1,-7.178468257E-2,9.942776680E0,9.945265215E0
2.143972499E0,2.153540403E-1,-6.939185411E-2,9.940383911E0,9.942958558E0
2.146337447E0,2.129612118E-1,-5.742774159E-2,9.935597420E0,9.938045407E0
2.148702395E0,2.392822653E-1,-6.460621208E-2,9.933204651E0,9.936296322E0
2.151067343E0,2.416750938E-1,-6.699903309E-2,9.935597420E0,9.938762086E0
2.153432291E0,2.249253243E-1,-6.939185411E-2,9.930811882E0,9.933601123E0
2.155797239E0,2.225325108E-1,-6.699903309E-2,9.926026344E0,9.928746576E0
2.158162187E0,2.321037948E-1,-5.264209956E-2,9.937990189E0,9.940839620E0
2.160527135E0,2.177468538E-1,-6.939185411E-2,9.937990189E0,9.940617582E0
2.162892083E0,2.201396823E-1,-6.699903309E-2,9.933204651E0,9.935869614E0
2.165257031E0,2.201396823E-1,-6.221338734E-2,9.940383911E0,9.943015855E0
2.167621978E0,2.129612118E-1,-7.178468257E-2,9.940383911E0,9.942924008E0
2.169986926E0,2.057827413E-1,-8.374879509E-2,9.937990189E0,9.940473298E0
2.172351874E0,2.105683982E-1,-8.614161611E-2,9.935597420E0,9.938201825E0
2.174716822E0,2.129612118E-1,-7.896314561E-2,9.937990189E0,9.940585327E0
2.177081770E0,2.009970993E-1,-6.460621208E-2,9.937990189E0,9.940232532E0
2.179446718E0,2.057827413E-1,-6.699903309E-2,9.933204651E0,9.935561889E0
2.181811666E0,2.081755698E-1,-5.982056633E-2,9.945169449E0,9.947527881E0
2.184176614E0,2.009970993E-1,-7.657032460E-2,9.937990189E0,9.940317492E0
2.186541562E0,2.129612118E-1,-6.939185411E-2,9.949954987E0,9.952475669E0
2.188906510E0,2.033899277E-1,-7.896314561E-2,9.940383911E0,9.942778029E0
2.191271458E0,2.009970993E-1,-8.374879509E-2,9.926026344E0,9.928414409E0
2.193636406E0,2.009970993E-1,-8.135596663E-2,9.916455269E0,9.918825723E0
2.196001353E0,2.177468538E-1,-8.374879509E-2,9.923633575E0,9.926375516E0
2.198366301E0,2.081755698E-1,-9.571290761E-2,9.937990189E0,9.940631118E0
2.200731249E0,2.153540403E-1,-7.896314561E-2,9.942776680E0,9.945422095E0
2.203096197E0,2.009970993E-1,-7.657032460E-2,9.935597420E0,9.937925283E0
2.205461145E0,2.033899277E-1,-9.092725813E-2,9.942776680E0,9.945272411E0
2.207826093E0,2.129612118E-1,-8.374879509E-2,9.949954987E0,9.952586125E0
2.210191041E0,2.177468538E-1,-6.939185411E-2,9.940383911E0,9.943010672E0
2.212555989E0,2.225325108E-1,-7.896314561E-2,9.940383911E0,9.943188030E0
2.214920937E0,2.273181528E-1,-7.657032460E-2,9.930811882E0,9.933708330E0
2.217285885E0,2.177468538E-1,-7.178468257E-2,9.926026344E0,9.928673916E0
2.219650833E0,2.105683982E-1,-6.939185411E-2,9.930811882E0,9.933286411E0
2.222015781E0,2.129612118E-1,-7.657032460E-2,9.959526062E0,9.962096911E0
2.224380728E0,2.177468538E-1,-8.135596663E-2,9.942776680E0,9.945493482E0
2.226745676E0,2.273181528E-1,-7.417750359E-2,9.923633575E0,9.926513949E0
2.229110624E0,2.297109663E-1,-7.178468257E-2,9.914062500E0,9.916983182E0
2.231475572E0,2.297109663E-1,-7.896314561E-2,9.933204651E0,9.936174160E0
2.233840520E0,2.321037948E-1,-6.939185411E-2,9.942776680E0,9.945727500E0
2.236205468E0,2.249253243E-1,-6.460621208E-2,9.918848038E0,9.921608325E0
2.238570416E0,2.033899277E-1,-5.742774159E-2,9.926026344E0,9.928276003E0
2.240935416E0,2.057827413E-1,-5.503492057E-2,9.926026344E0,9.928311758E0
2.243300364E0,2.201396823E-1,-9.092725813E-2,9.949954987E0,9.952805307E0
2.245665312E0,2.153540403E-1,-7.896314561E-2,9.942776680E0,9.945422095E0
2.248030260E0,2.177468538E-1,-4.785645381E-2,9.937990189E0,9.940490577E0
2.250395208E0,2.081755698E-1,-6.221338734E-2,9.935597420E0,9.937972814E0
2.252760156E0,2.033899277E-1,-7.178468257E-2,9.942776680E0,9.945115817E0
2.255125103E0,2.177468538E-1,-6.699903309E-2,9.930811882E0,9.933424747E0
2.257490051E0,2.081755698E-1,-8.614161611E-2,9.933204651E0,9.935759260E0
2.259854999E0,2.009970993E-1,-8.853443712E-2,9.940383911E0,9.942809989E0
2.262219947E0,2.129612118E-1,-7.417750359E-2,9.947562218E0,9.950118032E0
2.264584895E0,2.153540403E-1,-6.699903309E-2,9.935597420E0,9.938156887E0
2.266949843E0,2.225325108E-1,-6.699903309E-2,9.933204651E0,9.935922918E0
2.269314791E0,2.344966233E-1,-7.178468257E-2,9.940383911E0,9.943408571E0
2.271679739E0,2.225325108E-1,-9.092725813E-2,9.952347755E0,9.955250591E0
2.274044687E0,2.129612118E-1,-8.135596663E-2,9.954740524E0,9.957350560E0
2.276409635E0,2.201396823E-1,-7.896314561E-2,9.952347755E0,9.955095304E0
2.278774583E0,2.225325108E-1,-7.896314561E-2,9.942776680E0,9.945580124E0
2.281139531E0,2.081755698E-1,-6.939185411E-2,9.928419113E0,9.930843790E0
2.283504478E0,2.105683982E-1,-6.699903309E-2,9.930811882E0,9.933269983E0
2.285869426E0,2.081755698E-1,-6.221338734E-2,9.945169449E0,9.947542558E0
2.288234374E0,2.129612118E-1,-7.896314561E-2,9.935597420E0,9.938193183E0
2.290599322E0,2.225325108E-1,-7.417750359E-2,9.947562218E0,9.950327487E0
2.292964270E0,2.177468538E-1,-6.221338734E-2,9.937990189E0,9.940570063E0
2.295329218E0,2.153540403E-1,-8.374879509E-2,9.933204651E0,9.935891800E0
2.297694166E0,2.081755698E-1,-7.178468257E-2,9.935597420E0,9.938037341E0
2.300059114E0,2.009970993E-1,-6.699903309E-2,9.930811882E0,9.933071697E0
2.302424062E0,2.177468538E-1,-6.460621208E-2,9.942776680E0,9.945370569E0
2.304789010E0,2.297109663E-1,-7.896314561E-2,9.923633575E0,9.926605948E0
2.307153958E0,2.177468538E-1,-7.657032460E-2,9.935597420E0,9.938278160E0
2.309518906E0,2.033899277E-1,-9.332008660E-2,9.935597420E0,9.938117135E0
2.311883853E0,2.033899277E-1,-7.417750359E-2,9.923633575E0,9.925994817E0
2.314248801E0,1.986042857E-1,-7.178468257E-2,9.942776680E0,9.945019096E0
2.316613749E0,2.009970993E-1,-7.896314561E-2,9.949954987E0,9.952298189E0
2.318978697E0,2.344966233E-1,-8.614161611E-2,9.949954987E0,9.953090640E0
2.321343645E0,2.297109663E-1,-6.221338734E-2,9.945169449E0,9.948016536E0
2.323708593E0,2.225325108E-1,-6.939185411E-2,9.940383911E0,9.943116627E0
2.326073541E0,2.033899277E-1,-7.178468257E-2,9.947562218E0,9.949900230E0
2.328438489E0,1.986042857E-1,-7.657032460E-2,9.930811882E0,9.933092737E0
2.330803437E0,1.986042857E-1,-7.896314561E-2,9.928419113E0,9.930719255E0
2.333168385E0,2.033899277E-1,-7.657032460E-2,9.923633575E0,9.926012987E0
2.335533333E0,2.033899277E-1,-9.810572863E-2,9.928419113E0,9.930986773E0
2.337898281E0,2.081755698E-1,-7.657032460E-2,9.926026344E0,9.928504372E0
2.340263228E0,2.009970993E-1,-7.896314561E-2,9.937990189E0,9.940336212E0
2.342628176E0,2.009970993E-1,-6.699903309E-2,9.935597420E0,9.937856147E0
2.344993124E0,2.057827413E-1,-8.374879509E-2,9.937990189E0,9.940473298E0
2.347358072E0,2.129612118E-1,-8.614161611E-2,9.933204651E0,9.935860682E0
2.349723020E0,2.081755698E-1,-7.417750359E-2,9.947562218E0,9.950016756E0
2.352087968E0,2.081755698E-1,-6.699903309E-2,9.952347755E0,9.954750212E0
2.354452968E0,2.129612118E-1,-6.460621208E-2,9.928419113E0,9.930912975E0
2.356817916E0,2.081755698E-1,-6.460621208E-2,9.923633575E0,9.926027119E0
2.359182864E0,2.153540403E-1,-5.982056633E-2,9.918848038E0,9.921365947E0
2.361547812E0,2.225325108E-1,-6.460621208E-2,9.933204651E0,9.935907071E0
2.363912760E0,2.344966233E-1,-6.939185411E-2,9.930811882E0,9.933822453E0
2.366277708E0,2.416750938E-1,-6.699903309E-2,9.942776680E0,9.945939062E0
2.368642656E0,2.225325108E-1,-5.264209956E-2,9.923633575E0,9.926267942E0
2.371007603E0,2.177468538E-1,-6.221338734E-2,9.947562218E0,9.950139611E0
2.373372551E0,2.105683982E-1,-9.571290761E-2,9.935597420E0,9.938289395E0
2.375737499E0,2.153540403E-1,-9.332008660E-2,9.933204651E0,9.935977085E0
2.378102447E0,2.105683982E-1,-9.332008660E-2,9.940383911E0,9.943051845E0
2.380467395E0,2.177468538E-1,-6.939185411E-2,9.945169449E0,9.947794946E0
2.382832343E0,2.129612118E-1,-5.742774159E-2,9.935597420E0,9.938045407E0
2.385197291E0,2.057827413E-1,-7.178468257E-2,9.937990189E0,9.940379699E0
2.387562239E0,2.177468538E-1,-6.221338734E-2,9.935597420E0,9.938177916E0
2.389927187E0,2.201396823E-1,-6.460621208E-2,9.937990189E0,9.940638029E0
2.392292135E0,2.177468538E-1,-6.699903309E-2,9.930811882E0,9.933424747E0
2.394657083E0,2.225325108E-1,-6.699903309E-2,9.935597420E0,9.938315032E0
2.397022031E0,1.962114573E-1,-6.221338734E-2,9.935597420E0,9.937729395E0
2.399386978E0,2.033899277E-1,-6.699903309E-2,9.928419113E0,9.930728192E0
2.401751926E0,2.105683982E-1,-8.853443712E-2,9.930811882E0,9.933438581E0
2.404116874E0,2.105683982E-1,-8.853443712E-2,9.928419113E0,9.931046445E0
2.406481822E0,1.962114573E-1,-7.178468257E-2,9.947562218E0,9.949756080E0
2.408846770E0,1.962114573E-1,-8.374879509E-2,9.940383911E0,9.942672935E0
2.411211718E0,2.105683982E-1,-7.178468257E-2,9.949954987E0,9.952441727E0
2.413576666E0,2.057827413E-1,-6.939185411E-2,9.935597420E0,9.937970510E0
2.415941614E0,2.081755698E-1,-8.853443712E-2,9.942776680E0,9.945349844E0
2.418306562E0,2.129612118E-1,-8.374879509E-2,9.961918831E0,9.964546810E0
2.420671510E0,2.201396823E-1,-8.614161611E-2,9.947562218E0,9.950370643E0
2.423036458E0,2.033899277E-1,-6.699903309E-2,9.923633575E0,9.925943767E0
2.425401406E0,2.297109663E-1,-8.135596663E-2,9.916455269E0,9.919449129E0
2.427766353E0,2.321037948E-1,-8.135596663E-2,9.933204651E0,9.936249071E0
2.430131301E0,2.321037948E-1,-6.699903309E-2,9.930811882E0,9.933749830E0
2.432496249E0,2.344966233E-1,-7.657032460E-2,9.926026344E0,9.929091130E0
2.434861197E0,2.440679073E-1,-6.939185411E-2,9.949954987E0,9.953189871E0
2.437226145E0,2.321037948E-1,-6.699903309E-2,9.937990189E0,9.940926015E0
2.439591093E0,1.962114573E-1,-7.896314561E-2,9.928419113E0,9.930671689E0
2.441956041E0,1.914258152E-1,-6.699903309E-2,9.923633575E0,9.925705821E0
2.444320989E0,2.153540403E-1,-8.614161611E-2,9.926026344E0,9.928735908E0
2.446685937E0,2.321037948E-1,-9.332008660E-2,9.930811882E0,9.933962223E0
2.449050885E0,2.129612118E-1,-8.135596663E-2,9.930811882E0,9.933428205E0
2.451415833E0,1.986042857E-1,-7.178468257E-2,9.921240807E0,9.923488089E0
2.453780781E0,2.153540403E-1,-8.135596663E-2,9.935597420E0,9.938264046E0
2.456145728E0,2.153540403E-1,-6.699903309E-2,9.940383911E0,9.942942147E0
2.458510676E0,2.225325108E-1,-7.178468257E-2,9.947562218E0,9.950309937E0
2.460875676E0,2.153540403E-1,-8.614161611E-2,9.949954987E0,9.952658036E0
2.463240572E0,2.129612118E-1,-7.417750359E-2,9.947562218E0,9.950118032E0
2.465605520E0,1.914258152E-1,-8.135596663E-2,9.930811882E0,9.932989846E0
2.467970468E0,2.081755698E-1,-1.004985496E-1,9.935597420E0,9.938286226E0
2.470335468E0,2.153540403E-1,-8.374879509E-2,9.952347755E0,9.955029737E0
2.472700416E0,2.177468538E-1,-7.657032460E-2,9.947562218E0,9.950239735E0
2.475065364E0,2.201396823E-1,-7.178468257E-2,9.945169449E0,9.947864589E0
2.477430312E0,2.225325108E-1,-8.374879509E-2,9.930811882E0,9.933657897E0
2.479795260E0,2.129612118E-1,-7.896314561E-2,9.935597420E0,9.938193183E0
2.482160208E0,2.129612118E-1,-7.417750359E-2,9.926026344E0,9.928587703E0
2.484525156E0,2.009970993E-1,-7.896314561E-2,9.928419113E0,9.930767397E0
2.486890103E0,2.297109663E-1,-7.896314561E-2,9.947562218E0,9.950527442E0
2.489255051E0,2.153540403E-1,-6.699903309E-2,9.937990189E0,9.940549040E0
2.491619999E0,1.962114573E-1,-7.896314561E-2,9.937990189E0,9.940240596E0
2.493984947E0,2.033899277E-1,-8.853443712E-2,9.935597420E0,9.938073349E0
2.496349895E0,2.129612118E-1,-7.178468257E-2,9.940383911E0,9.942924008E0
2.498714843E0,2.321037948E-1,-7.417750359E-2,9.945169449E0,9.948154092E0
2.501079791E0,2.344966233E-1,-8.853443712E-2,9.937990189E0,9.941150638E0
2.503444739E0,2.249253243E-1,-7.417750359E-2,9.933204651E0,9.936027795E0
2.505809687E0,2.081755698E-1,-7.657032460E-2,9.935597420E0,9.938073061E0
2.508174635E0,2.081755698E-1,-7.657032460E-2,9.945169449E0,9.947642708E0
2.510539583E0,2.081755698E-1,-6.699903309E-2,9.923633575E0,9.926042982E0
2.512904531E0,2.105683982E-1,-7.178468257E-2,9.923633575E0,9.926126910E0
2.515269478E0,2.105683982E-1,-7.178468257E-2,9.945169449E0,9.947657385E0
2.517634426E0,2.225325108E-1,-5.264209956E-2,9.923633575E0,9.926267942E0
2.519999374E0,2.081755698E-1,-7.417750359E-2,9.926026344E0,9.928486207E0
2.522364322E0,1.962114573E-1,-7.657032460E-2,9.926026344E0,9.928260721E0
2.524729270E0,2.129612118E-1,-7.178468257E-2,9.928419113E0,9.930962270E0
2.527094218E0,2.081755698E-1,-7.896314561E-2,9.937990189E0,9.940483954E0
2.529459166E0,2.081755698E-1,-7.657032460E-2,9.933204651E0,9.935680889E0
2.531824114E0,2.177468538E-1,-7.417750359E-2,9.928419113E0,9.931083631E0
2.534189062E0,2.297109663E-1,-7.417750359E-2,9.940383911E0,9.943314424E0
2.536554010E0,2.392822653E-1,-9.571290761E-2,9.945169449E0,9.948508045E0
2.538918958E0,2.273181528E-1,-8.853443712E-2,9.926026344E0,9.929023662E0
2.541283906E0,2.249253243E-1,-8.135596663E-2,9.926026344E0,9.928907754E0
2.543648853E0,2.177468538E-1,-7.178468257E-2,9.928419113E0,9.931066046E0
2.546013801E0,2.201396823E-1,-7.178468257E-2,9.926026344E0,9.928726681E0
2.548378749E0,2.273181528E-1,-5.503492057E-2,9.926026344E0,9.928781465E0
2.550743697E0,2.033899277E-1,-7.657032460E-2,9.945169449E0,9.947543709E0
2.553108645E0,2.081755698E-1,-7.417750359E-2,9.942776680E0,9.945232399E0
2.555473593E0,2.033899277E-1,-6.460621208E-2,9.940383911E0,9.942674375E0
2.557838541E0,2.009970993E-1,-7.417750359E-2,9.933204651E0,9.935514922E0
2.560203489E0,1.962114573E-1,-8.135596663E-2,9.926026344E0,9.928298783E0
2.562568437E0,2.105683982E-1,-8.135596663E-2,9.923633575E0,9.926200743E0
2.564933385E0,2.153540403E-1,-8.614161611E-2,9.930811882E0,9.933520140E0
2.567298333E0,2.129612118E-1,-6.460621208E-2,9.923633575E0,9.926128640E0
2.569663281E0,2.105683982E-1,-6.939185411E-2,9.923633575E0,9.926109894E0
2.572028228E0,1.986042857E-1,-6.939185411E-2,9.923633575E0,9.925863299E0
2.574393176E0,2.081755698E-1,-7.417750359E-2,9.923633575E0,9.926094031E0
2.576758124E0,2.153540403E-1,-8.853443712E-2,9.940383911E0,9.943110580E0
2.579123072E0,2.177468538E-1,-8.853443712E-2,9.947562218E0,9.950338995E0
2.581488072E0,2.416750938E-1,-8.614161611E-2,9.942776680E0,9.946086433E0
2.583852968E0,2.177468538E-1,-1.148554832E-1,9.940383911E0,9.943431891E0
2.586217968E0,2.321037948E-1,-9.332008660E-2,9.952347755E0,9.955491281E0
2.588582916E0,2.201396823E-1,-7.417750359E-2,9.949954987E0,9.952666377E0
2.590947812E0,2.081755698E-1,-8.614161611E-2,9.937990189E0,9.940543568E0
2.593312812E0,2.225325108E-1,-8.614161611E-2,9.933204651E0,9.936070437E0
2.595677760E0,2.249253243E-1,-7.178468257E-2,9.918848038E0,9.921657666E0
2.598042708E0,2.321037948E-1,-6.699903309E-2,9.918848038E0,9.921789528E0
2.600407656E0,2.153540403E-1,-7.417750359E-2,9.937990189E0,9.940600015E0
2.602772603E0,1.986042857E-1,-6.939185411E-2,9.940383911E0,9.942609878E0
2.605137551E0,1.938186288E-1,-7.417750359E-2,9.942776680E0,9.944942236E0
2.607502499E0,2.177468538E-1,-7.178468257E-2,9.940383911E0,9.943027659E0
2.609867447E0,1.986042857E-1,-8.135596663E-2,9.945169449E0,9.947485000E0
2.612232395E0,1.914258152E-1,-7.657032460E-2,9.937990189E0,9.940128563E0
2.614597343E0,2.129612118E-1,-7.178468257E-2,9.952347755E0,9.954884799E0
2.616962291E0,1.986042857E-1,-5.982056633E-2,9.942776680E0,9.944939933E0
2.619327239E0,2.129612118E-1,-7.178468257E-2,9.940383911E0,9.942924008E0
2.621692187E0,2.081755698E-1,-6.939185411E-2,9.947562218E0,9.949982230E0
2.624057135E0,2.153540403E-1,-8.374879509E-2,9.935597420E0,9.938283922E0
2.626422083E0,1.986042857E-1,-7.178468257E-2,9.930811882E0,9.933056999E0
2.628787031E0,1.962114573E-1,-7.178468257E-2,9.935597420E0,9.937793923E0
2.631151978E0,1.962114573E-1,-7.178468257E-2,9.933204651E0,9.935401684E0
2.633516926E0,2.081755698E-1,-6.460621208E-2,9.933204651E0,9.935595889E0
2.635881874E0,2.201396823E-1,-6.939185411E-2,9.930811882E0,9.933493914E0
2.638246822E0,2.177468538E-1,-7.178468257E-2,9.937990189E0,9.940634573E0
2.640611770E0,2.177468538E-1,-8.135596663E-2,9.933204651E0,9.935924070E0
2.642976718E0,2.177468538E-1,-8.374879509E-2,9.921240807E0,9.923983409E0
2.645341666E0,2.201396823E-1,-8.614161611E-2,9.935597420E0,9.938409226E0
2.647706614E0,1.986042857E-1,-6.939185411E-2,9.945169449E0,9.947394345E0
2.650071562E0,2.033899277E-1,-7.417750359E-2,9.928419113E0,9.930779217E0
2.652436510E0,2.009970993E-1,-7.178468257E-2,9.935597420E0,9.937889563E0
2.654801458E0,2.249253243E-1,-7.896314561E-2,9.930811882E0,9.933672595E0
2.657166406E0,2.177468538E-1,-8.374879509E-2,9.923633575E0,9.926375516E0
2.659531353E0,2.225325108E-1,-7.178468257E-2,9.928419113E0,9.931172128E0
2.661896301E0,2.177468538E-1,-7.657032460E-2,9.942776680E0,9.945455486E0
2.664261249E0,2.153540403E-1,-7.657032460E-2,9.949954987E0,9.952579797E0
2.666626197E0,1.914258152E-1,-7.657032460E-2,9.942776680E0,9.944914025E0
2.668991145E0,2.153540403E-1,-7.178468257E-2,9.937990189E0,9.940582447E0
2.671356093E0,2.225325108E-1,-8.135596663E-2,9.947562218E0,9.950383590E0
2.673721041E0,2.177468538E-1,-6.939185411E-2,9.928419113E0,9.931049039E0
2.676085989E0,2.177468538E-1,-7.896314561E-2,9.918848038E0,9.921552059E0
2.678450937E0,2.129612118E-1,-8.614161611E-2,9.933204651E0,9.935860682E0
2.680815885E0,2.105683982E-1,-7.178468257E-2,9.930811882E0,9.933303415E0
2.683180833E0,2.105683982E-1,-6.939185411E-2,9.928419113E0,9.930894238E0
2.685545781E0,2.105683982E-1,-6.221338734E-2,9.914062500E0,9.916493574E0
2.687910728E0,2.081755698E-1,-7.417750359E-2,9.928419113E0,9.930878383E0
2.690275676E0,2.057827413E-1,-8.374879509E-2,9.945169449E0,9.947650766E0
2.692640624E0,2.129612118E-1,-6.699903309E-2,9.933204651E0,9.935713159E0
2.695005572E0,2.129612118E-1,-7.178468257E-2,9.921240807E0,9.923785803E0
2.697370520E0,2.105683982E-1,-7.178468257E-2,9.937990189E0,9.940479922E0
2.699735520E0,2.081755698E-1,-6.221338734E-2,9.930811882E0,9.933188421E0
2.702100468E0,2.129612118E-1,-8.135596663E-2,9.930811882E0,9.933428205E0
2.704465416E0,2.249253243E-1,-7.896314561E-2,9.926026344E0,9.928888436E0
2.706830364E0,2.225325108E-1,-6.460621208E-2,9.926026344E0,9.928730718E0
2.709195312E0,2.201396823E-1,-8.853443712E-2,9.918848038E0,9.921685654E0
2.711560260E0,2.201396823E-1,-8.135596663E-2,9.930811882E0,9.933584696E0
2.713925208E0,2.249253243E-1,-7.178468257E-2,9.928419113E0,9.931226034E0
2.716290156E0,2.129612118E-1,-6.699903309E-2,9.935597420E0,9.938105324E0
2.718655103E0,2.201396823E-1,-7.657032460E-2,9.942776680E0,9.945508162E0
2.721020051E0,2.105683982E-1,-8.135596663E-2,9.928419113E0,9.930985043E0
2.723384999E0,2.153540403E-1,-9.092725813E-2,9.921240807E0,9.923994371E0
2.725749947E0,2.249253243E-1,-8.614161611E-2,9.935597420E0,9.938516382E0
2.728114895E0,2.153540403E-1,-8.374879509E-2,9.928419113E0,9.931107557E0
2.730479843E0,2.177468538E-1,-5.742774159E-2,9.916455269E0,9.919011883E0
2.732844791E0,2.225325108E-1,-8.374879509E-2,9.923633575E0,9.926481649E0
2.735209739E0,2.177468538E-1,-8.853443712E-2,9.933204651E0,9.935985441E0
2.737574687E0,2.177468538E-1,-8.614161611E-2,9.921240807E0,9.924003890E0
2.739939635E0,2.225325108E-1,-9.332008660E-2,9.937990189E0,9.940919391E0
2.742304583E0,2.153540403E-1,-8.374879509E-2,9.947562218E0,9.950245489E0
2.744669531E0,1.962114573E-1,-7.657032460E-2,9.947562218E0,9.949791758E0
2.747034478E0,2.009970993E-1,-7.417750359E-2,9.952347755E0,9.954653584E0
2.749399426E0,2.105683982E-1,-6.699903309E-2,9.935597420E0,9.938054337E0
2.751764374E0,2.105683982E-1,-7.896314561E-2,9.940383911E0,9.942927463E0
2.754129322E0,2.177468538E-1,-6.699903309E-2,9.933204651E0,9.935816886E0
2.756494270E0,2.201396823E-1,-6.699903309E-2,9.937990189E0,9.940653869E0
2.758859218E0,2.153540403E-1,-7.657032460E-2,9.921240807E0,9.923873212E0
2.761224166E0,2.009970993E-1,-8.614161611E-2,9.930811882E0,9.933219259E0
2.763589114E0,2.081755698E-1,-8.374879509E-2,9.935597420E0,9.938130962E0
2.765954062E0,2.249253243E-1,-7.896314561E-2,9.942776680E0,9.945633951E0
2.768319010E0,2.153540403E-1,-7.417750359E-2,9.937990189E0,9.940600015E0
2.770683958E0,2.033899277E-1,-7.178468257E-2,9.933204651E0,9.935546041E0
2.773048906E0,1.986042857E-1,-6.221338734E-2,9.916455269E0,9.918638983E0
2.775413853E0,1.986042857E-1,-6.460621208E-2,9.918848038E0,9.921046518E0
2.777778801E0,2.105683982E-1,-6.460621208E-2,9.928419113E0,9.930861951E0
2.780143749E0,2.201396823E-1,-8.614161611E-2,9.935597420E0,9.938409226E0
2.782508697E0,2.177468538E-1,-6.460621208E-2,9.945169449E0,9.947762714E0
2.784873645E0,2.033899277E-1,-6.939185411E-2,9.945169449E0,9.947491043E0
2.787238593E0,2.105683982E-1,-7.896314561E-2,9.940383911E0,9.942927463E0
2.789603541E0,2.129612118E-1,-7.896314561E-2,9.945169449E0,9.947762714E0
2.791968489E0,2.249253243E-1,-7.417750359E-2,9.945169449E0,9.947989197E0
2.794333437E0,2.105683982E-1,-8.135596663E-2,9.940383911E0,9.942946754E0
2.796698385E0,2.153540403E-1,-6.460621208E-2,9.933204651E0,9.935748888E0
2.799063333E0,1.986042857E-1,-6.939185411E-2,9.918848038E0,9.921078837E0
2.801428281E0,2.105683982E-1,-8.614161611E-2,9.904491425E0,9.907104007E0
2.803793228E0,1.962114573E-1,-8.135596663E-2,9.928419113E0,9.930691004E0
2.806158176E0,1.962114573E-1,-7.896314561E-2,9.918848038E0,9.921102787E0
2.808523124E0,2.249253243E-1,-9.332008660E-2,9.935597420E0,9.938581193E0
2.810888072E0,2.273181528E-1,-9.332008660E-2,9.945169449E0,9.948204740E0
2.813253020E0,2.105683982E-1,-6.939185411E-2,9.926026344E0,9.928502066E0
2.815617968E0,2.081755698E-1,-6.460621208E-2,9.923633575E0,9.926027119E0
2.817982916E0,2.129612118E-1,-7.178468257E-2,9.918848038E0,9.921393648E0
2.820347916E0,2.057827413E-1,-6.699903309E-2,9.921240807E0,9.923600886E0
2.822712812E0,1.914258152E-1,-8.135596663E-2,9.918848038E0,9.921028628E0
2.825077812E0,2.129612118E-1,-7.896314561E-2,9.947562218E0,9.950154860E0
2.827442708E0,2.201396823E-1,-8.135596663E-2,9.949954987E0,9.952722467E0
2.829807708E0,2.129612118E-1,-6.221338734E-2,9.935597420E0,9.938074213E0
2.832172656E0,2.081755698E-1,-7.657032460E-2,9.930811882E0,9.933288716E0
2.834537603E0,2.009970993E-1,-8.135596663E-2,9.914062500E0,9.916433526E0
2.836902551E0,2.153540403E-1,-6.699903309E-2,9.928419113E0,9.930980431E0
2.839267499E0,2.177468538E-1,-7.896314561E-2,9.945169449E0,9.947866316E0
2.841632447E0,2.177468538E-1,-9.092725813E-2,9.930811882E0,9.933614956E0
2.843997395E0,1.962114573E-1,-7.657032460E-2,9.933204651E0,9.935437413E0
2.846362343E0,1.866401732E-1,-6.939185411E-2,9.940383911E0,9.942378090E0
2.848727291E0,1.914258152E-1,-6.221338734E-2,9.933204651E0,9.935243781E0
2.851092239E0,2.105683982E-1,-7.657032460E-2,9.933204651E0,9.935731312E0
2.853457187E0,2.057827413E-1,-9.571290761E-2,9.933204651E0,9.935797005E0
2.855822135E0,2.225325108E-1,-7.178468257E-2,9.935597420E0,9.938348447E0
2.858187083E0,2.177468538E-1,-7.896314561E-2,9.937990189E0,9.940689003E0
2.860552031E0,2.273181528E-1,-7.417750359E-2,9.923633575E0,9.926513949E0
2.862916978E0,2.153540403E-1,-7.178468257E-2,9.928419113E0,9.931013870E0
2.865281926E0,2.105683982E-1,-6.939185411E-2,9.933204651E0,9.935678584E0
2.867646874E0,2.201396823E-1,-8.135596663E-2,9.940383911E0,9.943154056E0
2.870011822E0,2.057827413E-1,-8.853443712E-2,9.947562218E0,9.950084369E0
2.872376770E0,2.033899277E-1,-8.374879509E-2,9.928419113E0,9.930855321E0
2.874741718E0,2.129612118E-1,-8.374879509E-2,9.921240807E0,9.923879558E0
2.877106666E0,2.129612118E-1,-6.699903309E-2,9.935597420E0,9.938105324E0
2.879471614E0,2.273181528E-1,-6.699903309E-2,9.928419113E0,9.931247077E0
2.881836562E0,2.225325108E-1,-6.699903309E-2,9.930811882E0,9.933530804E0
2.884201510E0,1.986042857E-1,-6.699903309E-2,9.935597420E0,9.937808039E0
2.886566458E0,2.057827413E-1,-6.221338734E-2,9.940383911E0,9.942708350E0
2.888931406E0,2.129612118E-1,-6.221338734E-2,9.940383911E0,9.942859512E0
2.891296353E0,2.177468538E-1,-6.699903309E-2,9.937990189E0,9.940601167E0
2.893661301E0,2.105683982E-1,-7.178468257E-2,9.935597420E0,9.938087753E0
2.896026249E0,2.105683982E-1,-6.699903309E-2,9.942776680E0,9.945231824E0
2.898391197E0,1.986042857E-1,-5.742774159E-2,9.930811882E0,9.932963618E0
2.900756145E0,2.105683982E-1,-8.374879509E-2,9.937990189E0,9.940573520E0
2.903121093E0,2.081755698E-1,-7.657032460E-2,9.945169449E0,9.947642708E0
2.905486041E0,2.129612118E-1,-7.417750359E-2,9.957133293E0,9.959686652E0
2.907850989E0,2.177468538E-1,-7.657032460E-2,9.942776680E0,9.945455486E0
2.910215937E0,2.105683982E-1,-7.896314561E-2,9.930811882E0,9.933357885E0
2.912580885E0,2.081755698E-1,-8.614161611E-2,9.923633575E0,9.926190648E0
2.914945833E0,2.081755698E-1,-6.939185411E-2,9.933204651E0,9.935628160E0
2.917310781E0,2.201396823E-1,-6.460621208E-2,9.930811882E0,9.933461636E0
2.919675728E0,2.321037948E-1,-6.939185411E-2,9.930811882E0,9.933766256E0
2.922040676E0,2.297109663E-1,-7.896314561E-2,9.937990189E0,9.940958268E0
2.924405624E0,2.344966233E-1,-7.657032460E-2,9.926026344E0,9.929091130E0
2.926770572E0,2.273181528E-1,-8.374879509E-2,9.935597420E0,9.938550372E0
2.929135520E0,2.297109663E-1,-8.135596663E-2,9.933204651E0,9.936193464E0
2.931500468E0,2.297109663E-1,-7.896314561E-2,9.930811882E0,9.933782107E0
2.933865416E0,2.201396823E-1,-8.853443712E-2,9.930811882E0,9.933646081E0
2.936230364E0,2.081755698E-1,-9.092725813E-2,9.928419113E0,9.931017618E0
2.938595312E0,2.033899277E-1,-5.982056633E-2,9.923633575E0,9.925897909E0
2.940960312E0,2.009970993E-1,-9.092725813E-2,9.928419113E0,9.930869735E0
2.943325260E0,2.033899277E-1,-9.092725813E-2,9.930811882E0,9.933310620E0
2.945690208E0,2.057827413E-1,-8.853443712E-2,9.923633575E0,9.926161807E0
2.948055156E0,2.033899277E-1,-1.028913707E-1,9.926026344E0,9.928643064E0
2.950420051E0,2.129612118E-1,-8.374879509E-2,9.928419113E0,9.931055957E0
2.952785051E0,2.081755698E-1,-8.853443712E-2,9.933204651E0,9.935780294E0
2.955149999E0,1.986042857E-1,-8.135596663E-2,9.926026344E0,9.928346360E0
2.957514947E0,2.105683982E-1,-9.571290761E-2,9.930811882E0,9.933505154E0
2.959879895E0,2.153540403E-1,-8.374879509E-2,9.930811882E0,9.933499678E0
2.962244843E0,2.153540403E-1,-9.092725813E-2,9.940383911E0,9.943132174E0
2.964609791E0,2.153540403E-1,-7.417750359E-2,9.937990189E0,9.940600015E0
2.966974739E0,2.129612118E-1,-6.699903309E-2,9.945169449E0,9.947674940E0
2.969339687E0,2.081755698E-1,-4.307080805E-2,9.933204651E0,9.935479193E0
2.971704635E0,2.273181528E-1,-6.221338734E-2,9.928419113E0,9.931215944E0
2.974069583E0,2.129612118E-1,-6.460621208E-2,9.940383911E0,9.942874772E0
2.976434531E0,2.249253243E-1,-7.178468257E-2,9.940383911E0,9.943187454E0
2.978799478E0,2.225325108E-1,-5.503492057E-2,9.935597420E0,9.938241577E0
2.981164426E0,2.273181528E-1,-7.178468257E-2,9.926026344E0,9.928888436E0
2.983529374E0,2.201396823E-1,-1.076770201E-1,9.935597420E0,9.938619215E0
2.985894322E0,2.105683982E-1,-8.135596663E-2,9.937990189E0,9.940553648E0
2.988259270E0,2.249253243E-1,-6.699903309E-2,9.921240807E0,9.924016295E0
2.990624218E0,2.057827413E-1,-7.178468257E-2,9.923633575E0,9.926026542E0
2.992989166E0,2.033899277E-1,-7.178468257E-2,9.935597420E0,9.937938246E0
2.995354114E0,2.105683982E-1,-6.460621208E-2,9.937990189E0,9.940430675E0
2.997719062E0,2.153540403E-1,-6.939185411E-2,9.937990189E0,9.940565456E0
3.000084010E0,2.177468538E-1,-7.657032460E-2,9.937990189E0,9.940670284E0
3.002448958E0,2.129612118E-1,-7.417750359E-2,9.933204651E0,9.935764159E0
3.004813906E0,2.129612118E-1,-6.460621208E-2,9.933204651E0,9.935697312E0
3.007178853E0,2.081755698E-1,-7.657032460E-2,9.937990189E0,9.940465234E0
3.009543801E0,2.201396823E-1,-6.460621208E-2,9.945169449E0,9.947815379E0
3.011908749E0,2.105683982E-1,-7.178468257E-2,9.945169449E0,9.947657385E0
3.014273697E0,2.081755698E-1,-8.374879509E-2,9.926026344E0,9.928562329E0
3.016638645E0,2.201396823E-1,-8.374879509E-2,9.942776680E0,9.945566020E0
3.019003593E0,2.225325108E-1,-9.092725813E-2,9.933204651E0,9.936113079E0
3.021368541E0,2.033899277E-1,-7.896314561E-2,9.930811882E0,9.933208307E0
3.023733489E0,1.890329868E-1,-8.135596663E-2,9.928419113E0,9.930551765E0
3.026098437E0,2.057827413E-1,-8.135596663E-2,9.926026344E0,9.928492550E0
3.028463385E0,2.129612118E-1,-7.896314561E-2,9.933204651E0,9.935801039E0
3.030828333E0,2.297109663E-1,-5.982056633E-2,9.937990189E0,9.940824645E0
3.033193281E0,2.249253243E-1,-6.221338734E-2,9.945169449E0,9.947907181E0
3.035558228E0,2.225325108E-1,-8.853443712E-2,9.940383911E0,9.943268646E0
3.037923176E0,2.273181528E-1,-8.374879509E-2,9.928419113E0,9.931374199E0
3.040288124E0,2.033899277E-1,-7.896314561E-2,9.949954987E0,9.952346802E0
3.042653072E0,2.033899277E-1,-6.939185411E-2,9.945169449E0,9.947491043E0
3.045018020E0,1.962114573E-1,-7.178468257E-2,9.952347755E0,9.954540563E0
3.047382968E0,2.057827413E-1,-6.460621208E-2,9.935597420E0,9.937938246E0
3.049747916E0,2.129612118E-1,-7.657032460E-2,9.942776680E0,9.945351859E0
3.052112864E0,1.986042857E-1,-5.742774159E-2,9.947562218E0,9.949710332E0
3.054477812E0,2.153540403E-1,-7.896314561E-2,9.957133293E0,9.959774895E0
3.056842760E0,2.273181528E-1,-6.939185411E-2,9.940383911E0,9.943224883E0
3.059207760E0,2.225325108E-1,-6.939185411E-2,9.930811882E0,9.933547231E0
3.061572656E0,2.344966233E-1,-6.939185411E-2,9.933204651E0,9.936214497E0
3.063937603E0,2.273181528E-1,-6.460621208E-2,9.935597420E0,9.938407498E0
3.066302603E0,2.273181528E-1,-7.896314561E-2,9.930811882E0,9.933727063E0
3.068667551E0,2.344966233E-1,-6.221338734E-2,9.935597420E0,9.938559013E0
3.071032499E0,2.273181528E-1,-7.417750359E-2,9.928419113E0,9.931298099E0
3.073397447E0,2.297109663E-1,-7.896314561E-2,9.928419113E0,9.931390053E0
3.075762395E0,2.129612118E-1,-8.135596663E-2,9.926026344E0,9.928643928E0
3.078127343E0,2.201396823E-1,-8.853443712E-2,9.935597420E0,9.938430254E0
3.080492291E0,2.105683982E-1,-8.135596663E-2,9.923633575E0,9.926200743E0
3.082857239E0,2.033899277E-1,-5.742774159E-2,9.926026344E0,9.928276003E0
3.085222187E0,2.081755698E-1,-7.178468257E-2,9.930811882E0,9.933252979E0
3.087587135E0,2.153540403E-1,-7.417750359E-2,9.928419113E0,9.931031455E0
3.089952083E0,2.105683982E-1,-5.982056633E-2,9.937990189E0,9.940400723E0
3.092317031E0,2.249253243E-1,-7.896314561E-2,9.930811882E0,9.933672595E0
3.094681978E0,1.986042857E-1,-7.417750359E-2,9.914062500E0,9.916329019E0
3.097046926E0,1.866401732E-1,-6.221338734E-2,9.930811882E0,9.932760427E0
3.099411874E0,2.009970993E-1,-9.571290761E-2,9.942776680E0,9.945268669E0
3.101776822E0,2.153540403E-1,-9.092725813E-2,9.937990189E0,9.940739113E0
3.104141770E0,2.033899277E-1,-7.657032460E-2,9.930811882E0,9.933189574E0
3.106506718E0,2.009970993E-1,-6.460621208E-2,9.937990189E0,9.940232532E0
3.108871666E0,2.057827413E-1,-6.460621208E-2,9.935597420E0,9.937938246E0
3.111236614E0,2.225325108E-1,-7.417750359E-2,9.921240807E0,9.924013410E0
3.113601562E0,2.057827413E-1,-6.699903309E-2,9.933204651E0,9.935561889E0
3.115966510E0,2.177468538E-1,-7.896314561E-2,9.933204651E0,9.935904765E0
3.118331458E0,2.225325108E-1,-7.417750359E-2,9.928419113E0,9.931189713E0
3.120696406E0,2.057827413E-1,-9.092725813E-2,9.937990189E0,9.940536368E0
3.123061353E0,2.081755698E-1,-8.135596663E-2,9.940383911E0,9.942896367E0
3.125426301E0,2.081755698E-1,-9.571290761E-2,9.942776680E0,9.945416338E0
3.127791249E0,1.986042857E-1,-8.135596663E-2,9.937990189E0,9.940307412E0
3.130156197E0,2.081755698E-1,-7.896314561E-2,9.933204651E0,9.935699617E0
3.132521145E0,2.153540403E-1,-8.374879509E-2,9.935597420E0,9.938283922E0
3.134886093E0,2.057827413E-1,-8.853443712E-2,9.940383911E0,9.942907884E0
3.137251041E0,2.153540403E-1,-7.657032460E-2,9.940383911E0,9.943011248E0
3.139615989E0,2.153540403E-1,-8.853443712E-2,9.928419113E0,9.931149067E0
3.141980937E0,2.033899277E-1,-9.571290761E-2,9.921240807E0,9.923786957E0
3.144345885E0,2.129612118E-1,-7.657032460E-2,9.928419113E0,9.930998015E0
3.146710833E0,2.225325108E-1,-7.178468257E-2,9.937990189E0,9.940740553E0
3.149075781E0,2.201396823E-1,-6.699903309E-2,9.947562218E0,9.950223335E0
3.151440728E0,2.129612118E-1,-6.939185411E-2,9.940383911E0,9.942907020E0
3.153805676E0,2.153540403E-1,-6.221338734E-2,9.933204651E0,9.935733617E0
3.156170624E0,2.081755698E-1,-9.571290761E-2,9.933204651E0,9.935846852E0
3.158535572E0,2.105683982E-1,-7.896314561E-2,9.930811882E0,9.933357885E0
3.160900520E0,2.129612118E-1,-6.699903309E-2,9.933204651E0,9.935713159E0
3.163265468E0,2.177468538E-1,-5.264209956E-2,9.933204651E0,9.935730447E0
3.165630416E0,2.321037948E-1,-6.699903309E-2,9.940383911E0,9.943319031E0
3.167995364E0,2.344966233E-1,-8.135596663E-2,9.933204651E0,9.936305254E0
3.170360312E0,2.129612118E-1,-8.374879509E-2,9.926026344E0,9.928663824E0
3.172725260E0,2.249253243E-1,-6.699903309E-2,9.928419113E0,9.931192595E0
3.175090208E0,2.129612118E-1,-7.417750359E-2,9.930811882E0,9.933372006E0
3.177455156E0,2.009970993E-1,-6.939185411E-2,9.923633575E0,9.925911465E0
3.179820103E0,2.033899277E-1,-7.417750359E-2,9.945169449E0,9.947525578E0
3.182185051E0,2.081755698E-1,-6.699903309E-2,9.945169449E0,9.947573639E0
3.184550051E0,2.225325108E-1,-6.939185411E-2,9.937990189E0,9.940723562E0
3.186914947E0,2.177468538E-1,-6.939185411E-2,9.930811882E0,9.933441174E0
3.189279947E0,2.105683982E-1,-6.939185411E-2,9.937990189E0,9.940462930E0
3.191644843E0,2.273181528E-1,-6.460621208E-2,9.928419113E0,9.931231222E0
3.194009843E0,2.249253243E-1,-7.896314561E-2,9.933204651E0,9.936064675E0
3.196374791E0,2.273181528E-1,-8.374879509E-2,9.933204651E0,9.936158314E0
3.198739739E0,2.249253243E-1,-8.614161611E-2,9.945169449E0,9.948085602E0
3.201104687E0,2.201396823E-1,-7.417750359E-2,9.933204651E0,9.935920613E0
3.203469635E0,2.129612118E-1,-9.332008660E-2,9.916455269E0,9.919180723E0
3.205834583E0,2.129612118E-1,-7.896314561E-2,9.921240807E0,9.923840325E0
3.208199531E0,2.153540403E-1,-9.092725813E-2,9.926026344E0,9.928778581E0
3.210564478E0,2.225325108E-1,-6.939185411E-2,9.923633575E0,9.926370902E0
3.212929426E0,2.321037948E-1,-7.178468257E-2,9.916455269E0,9.919430947E0
3.215294374E0,2.177468538E-1,-6.699903309E-2,9.930811882E0,9.933424747E0
3.217659322E0,2.153540403E-1,-7.417750359E-2,9.940383911E0,9.942993109E0
3.220024270E0,2.201396823E-1,-8.614161611E-2,9.952347755E0,9.955154831E0
3.222389218E0,2.153540403E-1,-7.178468257E-2,9.947562218E0,9.950151983E0
3.224754166E0,2.249253243E-1,-7.896314561E-2,9.926026344E0,9.928888436E0
3.227119114E0,2.273181528E-1,-6.699903309E-2,9.928419113E0,9.931247077E0
3.229484062E0,2.153540403E-1,-8.374879509E-2,9.940383911E0,9.943069120E0
3.231849010E0,2.225325108E-1,-7.896314561E-2,9.947562218E0,9.950364314E0
3.234213958E0,2.201396823E-1,-6.939185411E-2,9.937990189E0,9.940670284E0
3.236578906E0,2.201396823E-1,-7.657032460E-2,9.933204651E0,9.935938764E0
3.238943853E0,2.201396823E-1,-8.374879509E-2,9.949954987E0,9.952742314E0
3.241308801E0,2.201396823E-1,-7.178468257E-2,9.926026344E0,9.928726681E0
3.243673749E0,2.129612118E-1,-6.699903309E-2,9.937990189E0,9.940497489E0
3.246038697E0,2.009970993E-1,-7.896314561E-2,9.935597420E0,9.937944008E0
3.248403645E0,2.153540403E-1,-1.004985496E-1,9.928419113E0,9.931262931E0
3.250768593E0,2.249253243E-1,-8.374879509E-2,9.940383911E0,9.943281026E0
3.253133541E0,1.986042857E-1,-6.221338734E-2,9.947562218E0,9.949739104E0
3.255498489E0,2.129612118E-1,-6.460621208E-2,9.952347755E0,9.954835623E0
3.257863437E0,2.129612118E-1,-7.657032460E-2,9.949954987E0,9.952528308E0
3.260228385E0,1.914258152E-1,-6.939185411E-2,9.935597420E0,9.937683591E0
3.262593333E0,2.033899277E-1,-6.699903309E-2,9.928419113E0,9.930728192E0
3.264958281E0,2.129612118E-1,-7.896314561E-2,9.930811882E0,9.933408896E0
3.267323228E0,2.081755698E-1,-7.178468257E-2,9.940383911E0,9.942822658E0
3.269688176E0,2.033899277E-1,-8.135596663E-2,9.935597420E0,9.938011991E0
3.272053124E0,2.081755698E-1,-7.896314561E-2,9.930811882E0,9.933307449E0
3.274418072E0,2.249253243E-1,-7.657032460E-2,9.937990189E0,9.940830116E0
3.276783020E0,2.057827413E-1,-6.221338734E-2,9.933204651E0,9.935530770E0
3.279147968E0,2.153540403E-1,-6.939185411E-2,9.935597420E0,9.938173307E0
3.281512916E0,2.033899277E-1,-7.178468257E-2,9.930811882E0,9.933153836E0
3.283877864E0,2.057827413E-1,-7.657032460E-2,9.921240807E0,9.923670122E0
3.286242812E0,2.201396823E-1,-6.460621208E-2,9.945169449E0,9.947815379E0
3.288607760E0,2.057827413E-1,-5.982056633E-2,9.947562218E0,9.949870306E0
3.290972708E0,1.986042857E-1,-6.221338734E-2,9.933204651E0,9.935384683E0
3.293337656E0,1.986042857E-1,-5.742774159E-2,9.933204651E0,9.935355869E0
3.295702603E0,2.129612118E-1,-7.657032460E-2,9.940383911E0,9.942959710E0
3.298067551E0,2.081755698E-1,-6.939185411E-2,9.954740524E0,9.957158792E0
3.300432499E0,2.129612118E-1,-9.332008660E-2,9.945169449E0,9.947887036E0
3.302797499E0,2.009970993E-1,-7.178468257E-2,9.935597420E0,9.937889563E0
3.305162395E0,2.153540403E-1,-5.503492057E-2,9.940383911E0,9.942868726E0
3.307527343E0,2.081755698E-1,-7.896314561E-2,9.942776680E0,9.945269245E0
3.309892343E0,2.129612118E-1,-6.221338734E-2,9.940383911E0,9.942859512E0
3.312257239E0,2.105683982E-1,-7.178468257E-2,9.930811882E0,9.933303415E0
3.314622239E0,2.009970993E-1,-5.982056633E-2,9.935597420E0,9.937810343E0
3.316987187E0,2.153540403E-1,-7.657032460E-2,9.945169449E0,9.947795522E0
3.319352135E0,2.009970993E-1,-9.332008660E-2,9.942776680E0,9.945245929E0
3.321717083E0,2.081755698E-1,-9.092725813E-2,9.961918831E0,9.964508599E0
3.324082031E0,2.201396823E-1,-9.092725813E-2,9.945169449E0,9.948021141E0
3.326446978E0,2.201396823E-1,-7.657032460E-2,9.947562218E0,9.950292386E0
3.328811926E0,2.057827413E-1,-7.657032460E-2,9.935597420E0,9.938023226E0
3.331176874E0,2.273181528E-1,-6.460621208E-2,9.930811882E0,9.933623314E0
3.333541822E0,2.273181528E-1,-6.699903309E-2,9.933204651E0,9.936031252E0
3.335906770E0,2.033899277E-1,-7.896314561E-2,9.940383911E0,9.942778029E0
3.338271718E0,1.962114573E-1,-1.052841991E-1,9.942776680E0,9.945269821E0
3.340636666E0,1.938186288E-1,-9.810572863E-2,9.928419113E0,9.930795360E0
3.343001614E0,2.081755698E-1,-8.614161611E-2,9.928419113E0,9.930974954E0
3.345366562E0,2.129612118E-1,-9.092725813E-2,9.930811882E0,9.933511206E0
3.347731510E0,2.153540403E-1,-8.135596663E-2,9.935597420E0,9.938264046E0
3.350096458E0,2.297109663E-1,-8.853443712E-2,9.930811882E0,9.933862799E0
3.352461406E0,2.225325108E-1,-8.614161611E-2,9.937990189E0,9.940854595E0
3.354826353E0,2.129612118E-1,-9.810572863E-2,9.937990189E0,9.940755816E0
3.357191301E0,2.057827413E-1,-8.853443712E-2,9.923633575E0,9.926161807E0
3.359556249E0,2.081755698E-1,-7.896314561E-2,9.921240807E0,9.923738781E0
3.361921197E0,2.105683982E-1,-9.810572863E-2,9.928419113E0,9.931136384E0
3.364286145E0,2.105683982E-1,-7.417750359E-2,9.945169449E0,9.947674940E0
3.366651093E0,2.153540403E-1,-6.699903309E-2,9.954740524E0,9.957295071E0
3.369016041E0,2.344966233E-1,-6.221338734E-2,9.937990189E0,9.940951069E0
3.371380989E0,2.273181528E-1,-8.614161611E-2,9.942776680E0,9.945747937E0
3.373745937E0,2.177468538E-1,-9.571290761E-2,9.942776680E0,9.945621286E0
3.376110885E0,2.177468538E-1,-7.896314561E-2,9.937990189E0,9.940689003E0
3.378475833E0,2.081755698E-1,-7.657032460E-2,9.935597420E0,9.938073061E0
3.380840781E0,2.081755698E-1,-6.221338734E-2,9.937990189E0,9.940365012E0
3.383205728E0,2.105683982E-1,-7.178468257E-2,9.930811882E0,9.933303415E0
3.385570676E0,2.201396823E-1,-8.614161611E-2,9.926026344E0,9.928840861E0
3.387935624E0,2.105683982E-1,-8.374879509E-2,9.930811882E0,9.933397080E0
3.390300572E0,2.153540403E-1,-8.135596663E-2,9.937990189E0,9.940656173E0
3.392665520E0,2.105683982E-1,-8.135596663E-2,9.916455269E0,9.919024294E0
3.395030468E0,2.344966233E-1,-7.417750359E-2,9.930811882E0,9.933857036E0
3.397395416E0,2.249253243E-1,-6.460621208E-2,9.937990189E0,9.940745161E0
3.399760364E0,2.129612118E-1,-7.417750359E-2,9.935597420E0,9.938156311E0
3.402125312E0,2.153540403E-1,-6.460621208E-2,9.942776680E0,9.945318468E0
3.404490260E0,2.177468538E-1,-8.853443712E-2,9.935597420E0,9.938377540E0
3.406855208E0,2.153540403E-1,-8.135596663E-2,9.947562218E0,9.950225637E0
3.409220156E0,2.225325108E-1,-9.810572863E-2,9.928419113E0,9.931397260E0
3.411585103E0,2.177468538E-1,-8.374879509E-2,9.930811882E0,9.933551842E0
3.413950051E0,1.986042857E-1,-7.896314561E-2,9.935597420E0,9.937895900E0
3.416314999E0,2.201396823E-1,-5.982056633E-2,9.952347755E0,9.954961870E0
3.418679947E0,2.129612118E-1,-7.417750359E-2,9.957133293E0,9.959686652E0
3.421044895E0,2.033899277E-1,-5.742774159E-2,9.949954987E0,9.952199237E0
3.423409895E0,2.177468538E-1,-8.374879509E-2,9.942776680E0,9.945513343E0
3.425774791E0,2.177468538E-1,-8.853443712E-2,9.945169449E0,9.947946894E0
3.428139791E0,2.297109663E-1,-8.614161611E-2,9.937990189E0,9.941017880E0
3.430504687E0,2.321037948E-1,-9.092725813E-2,9.949954987E0,9.953077121E0
3.432869687E0,2.177468538E-1,-7.417750359E-2,9.937990189E0,9.940652141E0
3.435234635E0,2.201396823E-1,-1.100698411E-1,9.933204651E0,9.936253393E0
3.437599583E0,2.153540403E-1,-9.332008660E-2,9.942776680E0,9.945546446E0
3.439964531E0,2.225325108E-1,-9.332008660E-2,9.933204651E0,9.936135264E0
3.442329478E0,2.225325108E-1,-7.896314561E-2,9.937990189E0,9.940794983E0
3.444694426E0,2.273181528E-1,-7.657032460E-2,9.937990189E0,9.940884545E0
3.447059374E0,2.105683982E-1,-7.657032460E-2,9.928419113E0,9.930946992E0
3.449424322E0,2.081755698E-1,-6.699903309E-2,9.933204651E0,9.935611736E0
3.451789270E0,2.177468538E-1,-7.417750359E-2,9.911669731E0,9.914338750E0
3.454154218E0,2.201396823E-1,-5.264209956E-2,9.935597420E0,9.938175323E0
3.456519166E0,2.081755698E-1,-7.417750359E-2,9.921240807E0,9.923701855E0
3.458884114E0,2.321037948E-1,-5.503492057E-2,9.916455269E0,9.919323874E0
3.461249062E0,2.201396823E-1,-5.024927482E-2,9.921240807E0,9.923810035E0
3.463614010E0,2.344966233E-1,-6.939185411E-2,9.940383911E0,9.943391584E0
3.465978958E0,2.297109663E-1,-6.460621208E-2,9.935597420E0,9.938462516E0
3.468343906E0,2.177468538E-1,-7.417750359E-2,9.928419113E0,9.931083631E0
3.470708853E0,2.153540403E-1,-6.460621208E-2,9.945169449E0,9.947710626E0
3.473073801E0,2.105683982E-1,-7.417750359E-2,9.949954987E0,9.952459273E0
3.475438749E0,2.344966233E-1,-8.374879509E-2,9.942776680E0,9.945894160E0
3.477803697E0,2.416750938E-1,-7.896314561E-2,9.940383911E0,9.943634865E0
3.480168645E0,2.201396823E-1,-7.417750359E-2,9.937990189E0,9.940704843E0
3.482533593E0,2.153540403E-1,-6.939185411E-2,9.923633575E0,9.926212567E0
3.484898541E0,2.297109663E-1,-7.417750359E-2,9.942776680E0,9.945706488E0
3.487263489E0,2.273181528E-1,-8.374879509E-2,9.923633575E0,9.926590086E0
3.489628437E0,2.177468538E-1,-7.417750359E-2,9.940383911E0,9.943045222E0
3.491993385E0,2.033899277E-1,-6.939185411E-2,9.935597420E0,9.937921250E0
3.494358333E0,2.177468538E-1,-7.657032460E-2,9.933204651E0,9.935886037E0
3.496723281E0,2.225325108E-1,-7.417750359E-2,9.930811882E0,9.933581814E0
3.499088228E0,2.177468538E-1,-8.374879509E-2,9.933204651E0,9.935943951E0
3.501453176E0,2.009970993E-1,-8.614161611E-2,9.937990189E0,9.940395827E0
3.503818124E0,2.081755698E-1,-7.178468257E-2,9.930811882E0,9.933252979E0
3.506183072E0,2.129612118E-1,-6.221338734E-2,9.940383911E0,9.942859512E0
3.508548020E0,2.153540403E-1,-5.982056633E-2,9.942776680E0,9.945288531E0
3.510912968E0,2.249253243E-1,-7.178468257E-2,9.942776680E0,9.945579548E0
3.513277916E0,2.297109663E-1,-6.460621208E-2,9.940383911E0,9.943247628E0
3.515642864E0,2.177468538E-1,-6.699903309E-2,9.940383911E0,9.942994260E0
3.518007812E0,2.129612118E-1,-7.178468257E-2,9.949954987E0,9.952492640E0
3.520372760E0,2.105683982E-1,-8.614161611E-2,9.935597420E0,9.938201825E0
3.522737708E0,2.105683982E-1,-8.614161611E-2,9.937990189E0,9.940593967E0
3.525102656E0,2.057827413E-1,-9.571290761E-2,9.933204651E0,9.935797005E0
3.527467603E0,2.105683982E-1,-9.092725813E-2,9.940383911E0,9.943029675E0
3.529832551E0,2.129612118E-1,-8.614161611E-2,9.935597420E0,9.938252811E0
3.532197499E0,2.225325108E-1,-7.896314561E-2,9.933204651E0,9.936010796E0
3.534562447E0,2.177468538E-1,-6.460621208E-2,9.949954987E0,9.952547005E0
3.536927395E0,2.033899277E-1,-6.939185411E-2,9.937990189E0,9.940313460E0
3.539292343E0,2.153540403E-1,-6.221338734E-2,9.930811882E0,9.933341457E0
3.541657291E0,2.249253243E-1,-7.178468257E-2,9.935597420E0,9.938402313E0
3.544022239E0,2.201396823E-1,-6.699903309E-2,9.935597420E0,9.938261741E0
3.546387239E0,2.129612118E-1,-8.614161611E-2,9.952347755E0,9.954998679E0
3.548752135E0,2.057827413E-1,-8.614161611E-2,9.945169449E0,9.947671199E0
3.551117135E0,2.081755698E-1,-5.982056633E-2,9.933204651E0,9.935565923E0
3.553482031E0,2.177468538E-1,-6.221338734E-2,9.916455269E0,9.919040745E0
3.555847031E0,2.201396823E-1,-7.417750359E-2,9.933204651E0,9.935920613E0
3.558211978E0,2.081755698E-1,-9.571290761E-2,9.937990189E0,9.940631118E0
3.560576926E0,2.033899277E-1,-8.135596663E-2,9.942776680E0,9.945189509E0
3.562941822E0,2.105683982E-1,-7.896314561E-2,9.928419113E0,9.930965729E0
3.565306822E0,2.201396823E-1,-6.699903309E-2,9.933204651E0,9.935869614E0
3.567671770E0,2.249253243E-1,-7.178468257E-2,9.937990189E0,9.940794406E0
3.570036718E0,2.321037948E-1,-7.896314561E-2,9.926026344E0,9.929053648E0
3.572401666E0,2.153540403E-1,-8.135596663E-2,9.937990189E0,9.940656173E0
3.574766614E0,2.177468538E-1,-8.614161611E-2,9.926026344E0,9.928788096E0
3.577131562E0,2.177468538E-1,-7.417750359E-2,9.930811882E0,9.933475758E0
3.579496510E0,2.225325108E-1,-7.417750359E-2,9.921240807E0,9.924013410E0
3.581861458E0,2.057827413E-1,-9.332008660E-2,9.926026344E0,9.928597794E0
3.584226406E0,2.297109663E-1,-8.374879509E-2,9.935597420E0,9.938605389E0
3.586591353E0,2.153540403E-1,-5.982056633E-2,9.940383911E0,9.942896367E0
3.588956301E0,2.105683982E-1,-6.460621208E-2,9.940383911E0,9.942823810E0
3.591321249E0,2.177468538E-1,-8.853443712E-2,9.952347755E0,9.955123198E0
3.593686197E0,2.225325108E-1,-8.135596663E-2,9.933204651E0,9.936030100E0
3.596051145E0,2.153540403E-1,-8.374879509E-2,9.930811882E0,9.933499678E0
3.598416093E0,2.273181528E-1,-8.135596663E-2,9.923633575E0,9.926570187E0
3.600781041E0,2.249253243E-1,-6.460621208E-2,9.923633575E0,9.926392532E0
3.603145989E0,2.368894368E-1,-7.896314561E-2,9.940383911E0,9.943519703E0
3.605510937E0,2.273181528E-1,-7.657032460E-2,9.935597420E0,9.938492473E0
3.607875885E0,2.009970993E-1,-9.332008660E-2,9.940383911E0,9.942853754E0
3.610240833E0,1.962114573E-1,-1.052841991E-1,9.935597420E0,9.938092361E0
3.612605781E0,2.057827413E-1,-9.332008660E-2,9.937990189E0,9.940558544E0
3.614970728E0,1.962114573E-1,-8.853443712E-2,9.933204651E0,9.935536821E0
3.617335676E0,2.057827413E-1,-6.221338734E-2,9.937990189E0,9.940315188E0
3.619700624E0,2.153540403E-1,-6.460621208E-2,9.940383911E0,9.942926311E0
3.622065572E0,2.177468538E-1,-7.178468257E-2,9.930811882E0,9.933458178E0
3.624430520E0,2.129612118E-1,-7.417750359E-2,9.930811882E0,9.933372006E0
3.626795468E0,2.153540403E-1,-6.939185411E-2,9.921240807E0,9.923820420E0
3.629160416E0,2.321037948E-1,-6.221338734E-2,9.933204651E0,9.936110774E0
3.631525364E0,2.201396823E-1,-5.503492057E-2,9.935597420E0,9.938188286E0
3.633890312E0,2.225325108E-1,-6.939185411E-2,9.926026344E0,9.928763011E0
3.636255260E0,2.201396823E-1,-7.896314561E-2,9.930811882E0,9.933565387E0
3.638620208E0,2.129612118E-1,-8.374879509E-2,9.935597420E0,9.938232359E0
3.640985156E0,2.057827413E-1,-9.332008660E-2,9.933204651E0,9.935774243E0
3.643350103E0,2.249253243E-1,-7.417750359E-2,9.942776680E0,9.945597107E0
3.645715051E0,2.033899277E-1,-6.699903309E-2,9.935597420E0,9.937904831E0
3.648079999E0,2.033899277E-1,-6.699903309E-2,9.921240807E0,9.923551556E0
3.650444947E0,2.153540403E-1,-5.982056633E-2,9.930811882E0,9.933326759E0
3.652809895E0,2.297109663E-1,-5.982056633E-2,9.933204651E0,9.936040472E0
3.655174843E0,2.249253243E-1,-5.982056633E-2,9.933204651E0,9.935930985E0
3.657539791E0,2.321037948E-1,-7.657032460E-2,9.952347755E0,9.955348363E0
3.659904739E0,2.201396823E-1,-8.614161611E-2,9.947562218E0,9.950370643E0
3.662269687E0,2.081755698E-1,-7.896314561E-2,9.935597420E0,9.938091785E0
3.664634635E0,2.057827413E-1,-8.853443712E-2,9.942776680E0,9.945300045E0
3.666999583E0,2.273181528E-1,-8.374879509E-2,9.945169449E0,9.948119559E0
3.669364531E0,2.297109663E-1,-8.135596663E-2,9.926026344E0,9.929017318E0
3.671729478E0,2.201396823E-1,-6.699903309E-2,9.923633575E0,9.926301108E0
3.674094426E0,2.201396823E-1,-6.460621208E-2,9.921240807E0,9.923893116E0
3.676459374E0,2.057827413E-1,-8.135596663E-2,9.933204651E0,9.935669075E0
3.678824322E0,2.201396823E-1,-6.460621208E-2,9.921240807E0,9.923893116E0
3.681189322E0,2.153540403E-1,-6.939185411E-2,9.928419113E0,9.930996862E0
3.683554218E0,1.986042857E-1,-9.092725813E-2,9.921240807E0,9.923645024E0
3.685919218E0,2.153540403E-1,-9.332008660E-2,9.933204651E0,9.935977085E0
3.688284166E0,2.129612118E-1,-6.939185411E-2,9.923633575E0,9.926160942E0
3.690649114E0,2.057827413E-1,-6.221338734E-2,9.911669731E0,9.914000903E0
3.693014062E0,2.201396823E-1,-6.939185411E-2,9.918848038E0,9.921533304E0
3.695379010E0,2.177468538E-1,-7.178468257E-2,9.937990189E0,9.940634573E0
3.697743958E0,2.153540403E-1,-8.135596663E-2,9.935597420E0,9.938264046E0
3.700108906E0,2.201396823E-1,-7.417750359E-2,9.930811882E0,9.933528498E0
3.702473853E0,2.344966233E-1,-7.417750359E-2,9.954740524E0,9.957778360E0
3.704838801E0,2.201396823E-1,-5.742774159E-2,9.954740524E0,9.957339922E0
3.707203749E0,2.057827413E-1,-6.699903309E-2,9.947562218E0,9.949916054E0
3.709568697E0,2.105683982E-1,-9.092725813E-2,9.933204651E0,9.935852326E0
3.711933645E0,2.225325108E-1,-9.332008660E-2,9.940383911E0,9.943312409E0
3.714298593E0,2.297109663E-1,-7.657032460E-2,9.933204651E0,9.936155433E0
3.716663541E0,2.177468538E-1,-6.460621208E-2,9.945169449E0,9.947762714E0
3.719028489E0,2.225325108E-1,-4.307080805E-2,9.940383911E0,9.942967772E0
3.721393437E0,2.129612118E-1,-5.024927482E-2,9.945169449E0,9.947576229E0
3.723758385E0,2.201396823E-1,-6.460621208E-2,9.940383911E0,9.943031114E0
3.726123333E0,2.177468538E-1,-5.264209956E-2,9.949954987E0,9.952476532E0
3.728488281E0,2.081755698E-1,-7.417750359E-2,9.947562218E0,9.950016756E0
3.730853228E0,2.105683982E-1,-6.939185411E-2,9.952347755E0,9.954816931E0
3.733218176E0,2.009970993E-1,-8.374879509E-2,9.937990189E0,9.940375379E0
3.735583124E0,2.033899277E-1,-7.657032460E-2,9.930811882E0,9.933189574E0
3.737948072E0,1.986042857E-1,-7.896314561E-2,9.928419113E0,9.930719255E0
3.740313020E0,1.938186288E-1,-7.896314561E-2,9.933204651E0,9.935409175E0
3.742677968E0,2.009970993E-1,-8.135596663E-2,9.935597420E0,9.937963308E0
3.745042916E0,2.153540403E-1,-5.982056633E-2,9.940383911E0,9.942896367E0
3.747407864E0,2.177468538E-1,-5.024927482E-2,9.940383911E0,9.942895503E0
3.749772812E0,2.297109663E-1,-7.417750359E-2,9.937990189E0,9.940921407E0
3.752137760E0,2.201396823E-1,-7.417750359E-2,9.926026344E0,9.928744270E0
3.754502708E0,2.201396823E-1,-6.221338734E-2,9.926026344E0,9.928662094E0
3.756867656E0,2.201396823E-1,-9.092725813E-2,9.940383911E0,9.943236975E0
3.759232603E0,2.225325108E-1,-8.135596663E-2,9.935597420E0,9.938422189E0
3.761597551E0,2.249253243E-1,-6.939185411E-2,9.930811882E0,9.933601123E0
3.763962499E0,2.201396823E-1,-6.460621208E-2,9.935597420E0,9.938245898E0
3.766327447E0,2.129612118E-1,-7.178468257E-2,9.928419113E0,9.930962270E0
3.768692395E0,2.081755698E-1,-7.896314561E-2,9.933204651E0,9.935699617E0
3.771057343E0,2.273181528E-1,-8.614161611E-2,9.930811882E0,9.933786718E0
3.773422291E0,2.177468538E-1,-7.896314561E-2,9.926026344E0,9.928728411E0
3.775787239E0,2.249253243E-1,-8.135596663E-2,9.937990189E0,9.940868130E0
3.778152187E0,2.201396823E-1,-8.374879509E-2,9.945169449E0,9.947958117E0
3.780517135E0,2.153540403E-1,-8.135596663E-2,9.940383911E0,9.943049253E0
3.782882083E0,2.225325108E-1,-7.896314561E-2,9.947562218E0,9.950364314E0
3.785247031E0,2.321037948E-1,-7.417750359E-2,9.930811882E0,9.933800839E0
3.787611978E0,2.225325108E-1,-7.178468257E-2,9.928419113E0,9.931172128E0
3.789976926E0,2.225325108E-1,-8.135596663E-2,9.928419113E0,9.931245924E0
3.792341874E0,2.105683982E-1,-6.221338734E-2,9.940383911E0,9.942808550E0
3.794706822E0,2.129612118E-1,-6.939185411E-2,9.935597420E0,9.938121744E0
3.797071770E0,2.273181528E-1,-5.982056633E-2,9.942776680E0,9.945554794E0
3.799436718E0,2.129612118E-1,-7.178468257E-2,9.933204651E0,9.935746583E0
3.801801666E0,2.177468538E-1,-9.332008660E-2,9.952347755E0,9.955166908E0
3.804166614E0,2.129612118E-1,-8.135596663E-2,9.947562218E0,9.950174136E0
3.806531614E0,2.201396823E-1,-7.178468257E-2,9.937990189E0,9.940687275E0
3.808896562E0,2.153540403E-1,-7.178468257E-2,9.954740524E0,9.957328422E0
3.811261458E0,2.081755698E-1,-6.460621208E-2,9.966704369E0,9.969087571E0
3.813626458E0,2.129612118E-1,-6.221338734E-2,9.942776680E0,9.945251686E0
3.815991353E0,2.177468538E-1,-7.657032460E-2,9.947562218E0,9.950239735E0
3.818356353E0,2.225325108E-1,-8.374879509E-2,9.947562218E0,9.950403442E0
3.820721301E0,2.081755698E-1,-7.896314561E-2,9.947562218E0,9.950053584E0
3.823086249E0,2.105683982E-1,-7.657032460E-2,9.947562218E0,9.950085233E0
3.825451197E0,2.177468538E-1,-9.571290761E-2,9.947562218E0,9.950405455E0
3.827816145E0,2.225325108E-1,-7.657032460E-2,9.942776680E0,9.945561414E0
3.830181093E0,2.177468538E-1,-7.657032460E-2,9.937990189E0,9.940670284E0
3.832546041E0,2.177468538E-1,-8.374879509E-2,9.918848038E0,9.921591301E0
3.834910989E0,2.201396823E-1,-7.178468257E-2,9.942776680E0,9.945472469E0
3.837275937E0,2.225325108E-1,-6.460621208E-2,9.945169449E0,9.947868618E0
3.839640885E0,2.249253243E-1,-6.699903309E-2,9.933204651E0,9.935976797E0
3.842005833E0,2.225325108E-1,-6.699903309E-2,9.942776680E0,9.945492331E0
3.844370781E0,2.201396823E-1,-5.503492057E-2,9.947562218E0,9.950149969E0
3.846735728E0,2.033899277E-1,-6.699903309E-2,9.949954987E0,9.952259069E0
3.849100676E0,2.105683982E-1,-8.135596663E-2,9.933204651E0,9.935769345E0
3.851465624E0,2.153540403E-1,-8.614161611E-2,9.940383911E0,9.943089562E0
3.853830572E0,2.009970993E-1,-9.092725813E-2,9.923633575E0,9.926085378E0
3.856195520E0,2.153540403E-1,-6.939185411E-2,9.918848038E0,9.921428274E0
3.858560468E0,2.153540403E-1,-8.374879509E-2,9.923633575E0,9.926323315E0
3.860925416E0,2.225325108E-1,-7.896314561E-2,9.935597420E0,9.938402889E0
3.863290364E0,2.105683982E-1,-6.460621208E-2,9.942776680E0,9.945215992E0
3.865655312E0,1.938186288E-1,-5.982056633E-2,9.937990189E0,9.940060017E0
3.868020260E0,1.890329868E-1,-7.896314561E-2,9.937990189E0,9.940101490E0
3.870385208E0,2.225325108E-1,-8.614161611E-2,9.923633575E0,9.926502125E0
3.872750156E0,2.201396823E-1,-8.853443712E-2,9.916455269E0,9.919293570E0
3.875115103E0,2.177468538E-1,-8.614161611E-2,9.926026344E0,9.928788096E0
3.877480051E0,2.057827413E-1,-1.004985496E-1,9.923633575E0,9.926275728E0
3.879844999E0,2.177468538E-1,-1.052841991E-1,9.918848038E0,9.921796453E0
3.882209947E0,2.201396823E-1,-7.417750359E-2,9.918848038E0,9.921567929E0
3.884574895E0,2.129612118E-1,-6.221338734E-2,9.921240807E0,9.923721183E0
3.886939843E0,2.153540403E-1,-7.178468257E-2,9.945169449E0,9.947759837E0
3.889304791E0,2.344966233E-1,-8.853443712E-2,9.940383911E0,9.943543599E0
3.891669739E0,2.273181528E-1,-7.417750359E-2,9.933204651E0,9.936082250E0
3.894034687E0,2.033899277E-1,-7.178468257E-2,9.945169449E0,9.947508023E0
3.896399635E0,2.129612118E-1,-9.092725813E-2,9.942776680E0,9.945472757E0
3.898764583E0,2.057827413E-1,-8.853443712E-2,9.937990189E0,9.940514769E0
3.901129531E0,2.177468538E-1,-8.614161611E-2,9.937990189E0,9.940748617E0
3.903494478E0,1.986042857E-1,-7.896314561E-2,9.923633575E0,9.925934827E0
